acc_x;acc_y;acc_z;grav_x;grav_y;grav_z;lin_acc_x;lin_acc_y;lin_acc_z;gyro_x;gyro_y;gyro_z;LIGHT;mag_x;mag_y;mag_z;azimuth;pitch;roll;proximity;pressure;sound;lat;lon;altitude;alt_google;loc_alt_pres;speed_kmh;accuracy;loc_orientation;sats_in_range;lapsed;datetime
-0.848;2.41;9.198;-0.65;2.557;9.445;-0.079;-0.236;-0.001;0.012;-0.19;-0.017;3273.0;3.5;3.4;-52.5;4.2;-15.0;4.6;2.0;1022.6;49.05;;;;NaN;;;;;0 / 21;6;2015-07-28 17:29:21:798
-1.063;1.819;10.203;-0.991;1.867;9.576;0.164;0.047;0.456;-0.118;0.129;-0.02;2997.0;-1.5;3.9;-52.8;23.0;-12.1;4.7;2.0;1023.1;46.56;;;;NaN;;;;;0 / 21;1007;2015-07-28 17:29:22:799
-3.302;-2.202;6.363;1.157;0.669;9.715;-4.385;-2.611;1.481;-1.054;-2.007;-0.881;761.0;-0.9;-5.4;-50.7;25.7;-14.7;3.2;2.0;1023.0;52.29;47.60074;-122.28263;-48.4;NaN;;7.0;29.03226;71.3;9 / 21;2007;2015-07-28 17:29:23:799
-1.378;0.276;9.263;-0.021;-0.496;9.794;-0.839;0.397;-0.284;-0.022;-0.037;0.476;341.0;-11.0;12.9;-50.1;46.7;2.9;0.1;2.0;1023.7;67.04;47.60076;-122.2826;-45.2;NaN;;8.1;16.12903;71.9;13 / 21;3007;2015-07-28 17:29:24:799
-0.805;0.271;9.086;-0.622;0.048;9.787;-0.236;0.23;-0.463;0.025;-0.028;-0.009;421.0;-8.7;13.0;-50.8;42.7;-0.3;3.6;2.0;1022.1;54.69;47.60074;-122.2826;-38.7;NaN;;6.2;12.90323;80.3;13 / 22;4007;2015-07-28 17:29:25:799
-0.727;0.227;9.666;-0.648;0.176;9.784;-0.114;0.04;-0.156;0.008;-0.025;-0.046;420.0;-9.4;12.5;-51.2;43.8;-1.0;3.8;2.0;1022.1;61.12;47.60073;-122.28259;-35.5;NaN;;5.9;9.67742;82.2;15 / 23;5007;2015-07-28 17:29:26:799
-0.344;0.211;9.116;-0.646;0.17;9.784;0.215;0.016;-0.294;0.05;0.019;0.01;363.0;-10.8;12.6;-50.8;45.9;-1.0;3.8;2.0;1022.2;58.08;47.60073;-122.28259;-35.5;NaN;;5.9;9.67742;82.2;15 / 24;6007;2015-07-28 17:29:27:799
-1.16;0.153;9.934;-0.853;0.089;9.769;-0.301;0.117;0.36;-0.04;-0.032;0.011;513.0;-10.1;12.1;-51.2;48.8;-0.6;4.9;2.0;1022.4;64.47;47.60073;-122.28255;-38.7;NaN;;6.0;9.67742;84.6;15 / 24;7006;2015-07-28 17:29:28:798
-0.482;0.15;9.459;-0.627;0.216;9.784;0.254;-0.073;-0.033;0.041;0.062;-0.001;576.0;-10.7;12.9;-50.9;45.5;-1.1;3.6;2.0;1022.4;58.64;47.60073;-122.28253;-41.9;NaN;;6.2;9.67742;84.0;15 / 24;8007;2015-07-28 17:29:29:799
-0.746;0.097;9.847;-0.785;0.064;9.775;0.012;0.022;0.133;-0.019;-0.065;0.014;669.0;-9.3;12.7;-51.5;45.5;-0.4;5.1;2.0;1022.5;64.62;47.60074;-122.28251;-41.9;NaN;;6.1;9.67742;83.6;15 / 24;9007;2015-07-28 17:29:30:799
-0.554;0.177;9.563;-0.659;0.264;9.781;0.03;-0.054;0.052;0.007;0.032;0.026;631.0;-10.4;12.3;-51.1;45.1;-1.5;3.9;2.0;1022.4;53.96;47.60074;-122.28249;-45.2;NaN;;6.2;9.67742;80.7;15 / 24;10007;2015-07-28 17:29:31:799
-1.166;0.182;9.395;-0.87;0.082;9.768;-0.366;0.13;-0.094;-0.025;-0.003;0.0;593.0;-9.7;13.3;-51.1;47.2;-0.5;5.1;2.0;1022.5;67.65;47.60074;-122.28247;-45.2;NaN;;6.1;9.67742;80.6;15 / 24;11006;2015-07-28 17:29:32:798
-0.688;0.192;9.722;-0.735;0.247;9.776;0.037;-0.046;0.151;0.02;0.032;0.018;749.0;-9.5;13.5;-51.0;44.1;-1.4;4.3;2.0;1022.5;58.91;47.60074;-122.28245;-45.2;NaN;;6.3;9.67742;80.4;15 / 24;12007;2015-07-28 17:29:33:799
-0.868;0.077;9.501;-0.811;0.053;9.773;-0.064;0.039;-0.106;-0.013;-0.012;-0.038;474.0;-8.9;13.8;-51.3;42.6;-0.4;4.7;2.0;1022.5;62.69;47.60075;-122.28243;-48.4;NaN;;6.2;9.67742;80.2;15 / 25;13007;2015-07-28 17:29:34:799
-0.324;0.152;9.691;-0.572;0.269;9.786;0.231;-0.115;0.074;0.035;-0.007;0.001;566.0;-9.9;12.7;-50.8;42.9;-1.5;3.7;2.0;1022.5;61.71;47.60075;-122.2824;-48.4;NaN;;6.1;9.67742;78.6;15 / 25;14007;2015-07-28 17:29:35:799
-0.867;-0.031;10.235;-0.702;0.025;9.781;-0.077;0.009;0.276;-0.028;-0.036;0.049;643.0;-10.1;13.2;-51.2;46.3;-0.2;4.3;2.0;1022.6;58.64;47.60075;-122.28238;-48.4;NaN;;6.0;9.67742;78.6;15 / 25;15007;2015-07-28 17:29:36:799
-0.746;0.058;9.981;-0.753;0.101;9.777;0.03;-0.001;0.285;-0.062;0.064;0.018;595.0;-9.5;13.6;-50.6;39.9;-1.1;4.0;2.0;1022.5;62.59;47.60076;-122.28236;-51.6;NaN;;6.0;9.67742;79.9;15 / 25;16007;2015-07-28 17:29:37:799
-0.841;0.23;8.599;-0.891;0.342;9.76;0.035;-0.104;-1.19;0.051;-0.032;0.057;596.0;-9.2;14.1;-51.3;40.8;-2.0;5.2;2.0;1022.5;55.05;47.60076;-122.28234;-51.6;NaN;;6.0;9.67742;79.6;15 / 25;17007;2015-07-28 17:29:38:799
-1.236;0.134;10.669;-0.969;0.097;9.758;-0.304;0.045;1.252;-0.051;-0.006;0.03;725.0;-7.3;13.9;-51.2;38.3;-1.1;5.5;2.0;1022.6;62.57;47.60076;-122.28232;-48.4;NaN;;6.0;9.67742;78.2;15 / 25;18011;2015-07-28 17:29:39:803
-0.65;0.173;8.694;-0.674;0.147;9.782;-0.002;0.032;-0.916;-0.009;0.016;0.001;499.0;-8.8;15.3;-50.7;38.2;-0.9;3.9;2.0;1022.4;62.16;47.60077;-122.28229;-51.6;NaN;;5.7;9.67742;78.0;15 / 25;19009;2015-07-28 17:29:40:801
-0.52;0.341;8.516;-0.646;0.294;9.781;0.121;0.024;-0.922;-0.005;-0.027;-0.032;352.0;-8.2;14.5;-51.5;36.4;-1.7;3.9;2.0;1022.5;61.8;47.60077;-122.28227;-51.6;NaN;;5.7;9.67742;69.5;15 / 25;20007;2015-07-28 17:29:41:799
-0.663;0.283;9.677;-0.552;0.114;9.79;0.024;0.12;0.214;0.114;0.005;0.065;432.0;-9.6;15.1;-50.4;39.4;-0.7;3.2;2.0;1022.6;63.15;47.60078;-122.28225;-51.6;NaN;;5.7;9.67742;69.7;15 / 25;21006;2015-07-28 17:29:42:798
-0.439;0.058;10.382;-0.502;0.013;9.794;0.051;0.045;0.808;-0.04;0.03;-0.011;493.0;-10.0;14.0;-50.4;41.0;-0.2;2.7;2.0;1022.7;60.24;47.60078;-122.28223;-51.6;NaN;;5.7;9.67742;80.7;15 / 25;22006;2015-07-28 17:29:43:798
-0.715;0.219;9.252;-0.683;0.231;9.78;0.116;0.054;-0.536;-0.054;0.007;0.006;462.0;-8.4;13.4;-51.1;39.1;-1.4;4.0;2.0;1022.5;67.04;47.60079;-122.28221;-51.6;NaN;;5.4;9.67742;80.2;15 / 25;23007;2015-07-28 17:29:44:799
-0.326;0.25;9.398;-0.643;0.327;9.78;0.171;-0.067;-0.057;0.066;-0.027;-0.002;435.0;-8.9;14.0;-51.1;39.8;-1.6;4.3;2.0;1022.8;68.73;47.60079;-122.28219;-54.8;NaN;;5.3;9.67742;77.8;15 / 25;24007;2015-07-28 17:29:45:799
-0.88;0.211;10.186;-0.675;0.102;9.783;-0.201;0.106;0.506;0.005;-0.009;0.006;424.0;-9.2;14.0;-50.8;40.6;-0.5;3.8;2.0;1022.7;69.54;47.6008;-122.28217;-54.8;NaN;;5.4;9.67742;77.8;15 / 25;25007;2015-07-28 17:29:46:799
-0.286;0.209;9.326;-0.433;0.259;9.794;0.126;-0.058;-0.091;0.012;0.026;-0.022;363.0;-9.4;13.4;-50.5;38.1;-1.5;2.5;2.0;1022.5;63.89;47.6008;-122.28215;-54.8;NaN;;5.3;9.67742;79.8;15 / 25;26007;2015-07-28 17:29:47:799
-0.334;0.091;9.975;-0.665;0.098;9.784;0.132;-0.021;0.331;-0.002;-0.019;0.011;482.0;-9.7;14.2;-50.9;43.2;-0.7;4.2;2.0;1022.6;68.1;47.6008;-122.28213;-54.8;NaN;;5.4;9.67742;79.5;15 / 25;27006;2015-07-28 17:29:48:798
-1.183;0.199;9.673;-0.909;0.256;9.761;-0.243;-0.002;0.101;-0.027;0.04;0.001;407.0;-8.1;13.0;-51.1;41.6;-1.5;5.3;2.0;1022.5;53.1;47.60081;-122.28212;-54.8;NaN;;5.1;9.67742;77.3;15 / 25;28006;2015-07-28 17:29:49:798
-1.129;0.212;9.539;-0.898;0.162;9.764;-0.179;0.086;-0.121;-0.019;-0.009;-0.031;614.0;-8.4;13.8;-51.0;39.9;-1.0;5.0;2.0;1022.5;58.95;47.60082;-122.2821;-54.8;NaN;;5.5;9.67742;77.6;11 / 15;29007;2015-07-28 17:29:50:799
-0.47;0.345;8.703;-0.687;0.402;9.774;0.26;-0.062;-0.781;0.046;0.016;-0.028;493.0;-8.6;12.4;-51.0;42.0;-2.3;4.1;2.0;1022.4;54.51;47.60082;-122.28208;-58.1;NaN;;5.7;9.67742;77.6;11 / 14;30007;2015-07-28 17:29:51:799
-0.52;0.092;9.968;-0.784;0.044;9.775;-0.055;0.014;0.475;0.029;-0.061;0.028;741.0;-9.2;14.2;-50.9;44.0;0.2;4.9;2.0;1022.5;57.9;47.60082;-122.28206;-54.8;NaN;;5.8;9.67742;80.1;11 / 14;31007;2015-07-28 17:29:52:799
-1.037;0.211;10.12;-0.749;0.201;9.776;-0.218;0.025;0.469;-0.063;0.039;-0.027;592.0;-9.3;12.8;-51.6;42.7;-1.2;4.4;2.0;1022.5;57.71;47.60083;-122.28204;-54.8;NaN;;5.1;9.67742;79.4;11 / 15;32007;2015-07-28 17:29:53:799
-0.321;0.153;8.949;-0.617;0.185;9.785;0.227;-0.001;-0.536;0.012;0.021;0.012;693.0;-10.2;13.6;-51.2;42.2;-0.9;3.9;2.0;1022.4;54.93;47.60083;-122.28202;-54.8;NaN;;5.4;9.67742;84.8;10 / 14;33007;2015-07-28 17:29:54:799
-1.129;0.234;9.6;-0.991;0.272;9.753;-0.27;-0.008;0.037;-0.025;-0.028;0.003;629.0;-8.0;12.3;-51.1;44.4;-1.6;5.8;2.0;1022.5;56.02;47.60083;-122.282;-58.1;NaN;;5.7;9.67742;84.5;9 / 14;34007;2015-07-28 17:29:55:799
-0.845;0.211;9.849;-0.966;0.223;9.756;0.038;-0.013;0.271;0.048;0.034;0.035;681.0;-9.2;13.2;-50.8;44.7;-1.3;5.7;2.0;1022.5;59.01;47.60084;-122.28198;-54.8;NaN;;5.7;9.67742;83.4;10 / 15;35007;2015-07-28 17:29:56:799
-0.878;0.058;9.811;-1.013;0.061;9.754;-0.032;0.046;0.179;-0.06;-0.023;-0.015;564.0;-7.8;12.9;-50.7;44.5;-0.6;6.0;2.0;1022.5;50.05;47.60084;-122.28197;-58.1;NaN;;5.5;9.67742;78.3;11 / 15;36007;2015-07-28 17:29:57:799
-0.899;0.213;9.616;-0.975;0.409;9.75;-0.01;-0.163;0.008;0.049;-0.012;0.008;537.0;-8.5;11.9;-51.4;43.1;-2.3;5.8;2.0;1022.5;53.12;47.60085;-122.28196;-58.1;NaN;;5.5;9.67742;78.1;8 / 12;37006;2015-07-28 17:29:58:798
-0.678;0.029;10.045;-0.752;-0.044;9.778;0.041;0.043;0.327;-0.04;0.004;-0.014;682.0;-9.9;13.3;-51.1;47.4;0.2;4.4;2.0;1022.5;72.74;47.60085;-122.28194;-58.1;NaN;;5.9;9.67742;78.3;10 / 15;38008;2015-07-28 17:29:59:800
-0.632;0.192;9.037;-0.718;0.328;9.775;0.003;-0.054;-0.598;-0.04;-0.004;-0.014;452.0;-9.8;11.0;-51.3;47.3;-1.9;4.2;2.0;1022.5;54.92;47.60085;-122.28192;-58.1;NaN;;5.9;9.67742;76.5;11 / 15;39009;2015-07-28 17:30:00:801
-0.65;0.211;9.631;-0.752;0.282;9.774;0.03;-0.066;-0.091;0.05;-0.031;0.016;568.0;-10.3;12.0;-50.8;45.9;-1.6;4.4;2.0;1022.6;56.25;47.60085;-122.28189;-58.1;NaN;;7.2;9.67742;77.3;9 / 13;40008;2015-07-28 17:30:01:800
-0.995;0.116;10.0;-0.896;0.081;9.765;-0.106;0.064;0.551;-0.027;0.03;0.015;634.0;-9.4;12.4;-50.9;47.7;-0.5;5.2;2.0;1022.5;53.22;47.60085;-122.28187;-58.1;NaN;;5.6;9.67742;84.2;11 / 15;41007;2015-07-28 17:30:02:799
-0.503;0.186;9.144;-0.796;0.338;9.768;0.309;-0.168;-0.558;-0.006;-0.007;-0.008;316.0;-9.7;11.6;-51.0;46.0;-2.1;4.9;0.0;1022.4;67.08;47.60086;-122.28185;-54.8;NaN;;5.9;9.67742;82.6;11 / 15;42007;2015-07-28 17:30:03:799
-0.937;0.126;10.313;-0.938;0.128;9.761;0.003;0.04;0.519;0.005;0.011;0.002;325.0;-9.3;12.9;-51.2;45.7;-0.6;5.5;0.0;1022.6;56.69;47.60085;-122.28183;-54.8;NaN;;5.0;9.67742;82.1;10 / 13;43007;2015-07-28 17:30:04:799
-0.758;0.054;9.627;-0.973;0.15;9.757;-0.053;-0.007;0.028;-0.048;0.016;0.016;73.0;-9.6;11.7;-51.1;49.6;-0.9;5.7;0.0;1023.5;64.87;47.60085;-122.28182;-54.8;NaN;;5.7;9.67742;82.1;10 / 15;44008;2015-07-28 17:30:05:800
-1.53;0.211;9.369;-1.013;0.141;9.753;-0.433;0.145;-0.19;-0.025;-0.009;-0.051;64.0;-8.6;11.4;-51.5;48.7;-1.1;5.3;0.0;1023.5;58.51;47.60085;-122.28179;-54.8;NaN;;5.5;9.67742;78.3;11 / 15;45007;2015-07-28 17:30:06:799
-0.801;0.315;9.435;-0.799;0.249;9.771;-0.014;0.075;-0.229;0.077;0.054;-0.022;64.0;-10.2;12.0;-51.3;47.1;-1.1;4.4;0.0;1023.0;54.12;47.60085;-122.28176;-54.8;NaN;;6.7;9.67742;78.4;11 / 14;46007;2015-07-28 17:30:07:799
-1.407;0.039;10.05;-1.178;0.029;9.736;-0.234;0.029;0.564;-0.092;-0.004;0.021;84.0;-8.6;10.8;-51.8;51.4;-1.0;6.6;0.0;1022.8;60.26;47.60086;-122.28173;-54.8;NaN;;5.9;9.67742;86.1;10 / 14;47007;2015-07-28 17:30:08:799
-0.746;0.288;7.968;-0.908;0.333;9.759;0.181;-0.013;-1.673;-0.009;-0.015;0.024;98.0;-9.0;11.6;-51.1;45.0;-1.9;5.3;0.0;1022.6;55.96;47.60086;-122.28172;-58.1;NaN;;6.0;9.67742;92.2;11 / 15;48007;2015-07-28 17:30:09:799
-0.544;0.317;9.668;-0.807;0.233;9.771;0.236;-0.004;0.42;0.122;-0.011;0.014;167.0;-9.3;12.8;-51.4;44.1;-0.9;5.0;0.0;1022.6;64.46;47.60086;-122.28172;-64.5;NaN;;6.9;9.67742;83.6;10 / 14;49007;2015-07-28 17:30:10:799
-0.888;-0.038;10.91;-0.83;-0.118;9.771;-0.047;0.078;1.373;-0.024;-0.011;0.017;99.0;-9.6;13.4;-51.5;49.0;0.7;4.9;0.0;1022.6;59.81;47.60087;-122.2817;-61.3;NaN;;6.0;9.67742;83.2;10 / 14;50007;2015-07-28 17:30:11:799
-0.63;0.171;8.586;-0.768;0.213;9.774;0.167;-0.16;-0.762;-0.071;0.007;0.012;78.0;-9.1;11.3;-51.0;45.5;-2.0;4.5;0.0;1022.4;70.54;47.60086;-122.28167;-67.7;NaN;;6.0;9.67742;84.5;11 / 15;51007;2015-07-28 17:30:12:799
-0.876;0.238;9.539;-0.929;0.167;9.761;0.048;0.073;-0.145;0.032;-0.005;0.028;185.0;-8.7;12.9;-50.8;44.9;-1.0;5.4;0.0;1022.6;65.07;47.60086;-122.28165;-67.7;NaN;;5.7;9.67742;84.6;15 / 25;52007;2015-07-28 17:30:13:799
-0.612;0.269;9.003;-0.592;0.243;9.786;0.107;-0.021;-0.32;0.046;-0.01;0.001;178.0;-9.5;12.4;-51.4;43.2;-1.1;3.6;0.0;1022.5;59.01;47.60086;-122.28162;-67.7;NaN;;5.7;9.67742;82.9;15 / 25;53006;2015-07-28 17:30:14:798
-0.324;0.268;9.341;-0.43;0.138;9.796;0.089;0.126;-0.238;0.043;-0.036;-0.032;178.0;-10.4;13.2;-51.1;44.0;-0.2;3.1;0.0;1022.5;66.35;47.60086;-122.2816;-64.5;NaN;;5.7;9.67742;82.9;15 / 25;54007;2015-07-28 17:30:15:799
-0.65;0.177;10.584;-0.585;0.149;9.788;-0.083;0.035;0.884;0.073;0.014;0.018;186.0;-11.0;13.0;-51.2;45.9;-0.6;3.3;0.0;1022.6;62.35;47.60087;-122.28157;-67.7;NaN;;5.7;9.67742;82.3;15 / 25;55008;2015-07-28 17:30:16:800
-0.401;-0.015;9.915;-0.577;0.047;9.79;0.163;-0.051;0.445;0.003;0.045;0.022;204.0;-10.6;12.7;-51.2;46.2;-0.3;3.2;0.0;1022.5;54.2;47.60087;-122.28155;-64.5;NaN;;5.9;9.67742;82.3;15 / 25;56007;2015-07-28 17:30:17:799
-0.577;0.077;9.632;-0.736;0.095;9.779;0.002;0.027;-0.001;-0.074;-0.039;-0.006;196.0;-9.9;12.8;-51.1;45.7;-0.6;4.3;0.0;1022.5;57.46;47.60087;-122.28153;-64.5;NaN;;5.7;9.67742;78.9;15 / 25;57006;2015-07-28 17:30:18:798
-0.941;0.211;9.692;-0.758;0.231;9.775;-0.213;-0.017;0.043;0.05;0.022;0.011;203.0;-10.7;13.8;-50.9;44.3;-1.0;4.0;0.0;1022.5;59.48;47.60087;-122.2815;-61.3;NaN;;5.5;9.67742;79.2;15 / 25;58007;2015-07-28 17:30:19:799
-0.589;0.218;9.149;-0.564;0.187;9.789;-0.084;0.043;-0.116;-0.03;0.003;-0.004;139.0;-10.1;12.2;-51.6;45.0;-1.1;3.3;0.0;1022.5;66.43;47.60087;-122.28148;-64.5;NaN;;5.7;9.67742;78.4;15 / 25;59007;2015-07-28 17:30:20:799
-0.612;0.288;9.359;-0.664;0.244;9.781;0.055;0.033;-0.42;0.056;0.008;0.009;103.0;-10.2;13.0;-51.1;43.3;-1.4;3.9;0.0;1022.5;49.71;47.60087;-122.28146;-61.3;NaN;;5.8;9.67742;78.4;14 / 25;60007;2015-07-28 17:30:21:799
-0.741;0.089;10.343;-0.757;-0.004;9.777;-0.001;0.095;0.729;0.011;-0.019;0.019;100.0;-9.2;14.2;-50.8;42.7;0.0;4.4;0.0;1022.6;54.37;47.60087;-122.28143;-61.3;NaN;;5.5;9.67742;80.2;15 / 25;61007;2015-07-28 17:30:22:799
-0.762;0.099;8.729;-0.739;0.082;9.778;-0.054;0.017;-0.626;-0.08;0.025;-0.004;186.0;-9.1;13.2;-50.8;42.8;-0.8;4.2;0.0;1022.4;52.96;47.60088;-122.28141;-61.3;NaN;;5.5;9.67742;80.0;15 / 25;62007;2015-07-28 17:30:23:799
-0.995;0.341;8.654;-0.83;0.41;9.763;-0.135;-0.035;-0.788;0.033;-0.008;0.012;152.0;-8.9;12.8;-51.0;41.4;-2.4;4.9;0.0;1022.5;61.25;47.60088;-122.28139;-61.3;NaN;;5.7;9.67742;79.6;15 / 25;63007;2015-07-28 17:30:24:799
-0.843;0.258;9.618;-0.857;0.053;9.769;0.093;0.077;0.189;0.078;0.036;-0.022;212.0;-8.4;14.1;-51.1;41.1;-0.3;5.0;0.0;1022.5;59.24;47.60088;-122.28137;-61.3;NaN;;5.9;9.67742;82.1;15 / 25;64007;2015-07-28 17:30:25:799
-0.631;0.096;10.061;-0.685;0.01;9.783;0.069;0.086;0.284;-0.043;-0.06;-0.039;204.0;-8.3;12.7;-51.4;42.4;-0.2;4.6;0.0;1022.5;57.51;47.60088;-122.28135;-61.3;NaN;;5.5;9.67742;81.9;15 / 25;65007;2015-07-28 17:30:26:799
-0.095;0.058;9.75;-0.552;0.096;9.791;0.431;-0.036;0.148;0.006;0.0;-0.013;180.0;-10.8;13.0;-50.5;45.9;-0.5;3.2;0.0;1022.5;58.59;47.60088;-122.28132;-58.1;NaN;;5.5;9.67742;79.7;15 / 25;66008;2015-07-28 17:30:27:800
-1.07;0.171;10.115;-0.864;0.21;9.766;-0.322;-0.008;0.46;-0.023;-0.001;0.018;154.0;-9.6;11.8;-51.7;47.0;-1.4;4.7;0.0;1022.5;58.34;47.60089;-122.28131;-58.1;NaN;;5.3;9.67742;79.6;15 / 25;67007;2015-07-28 17:30:28:799
-0.96;0.173;9.83;-0.761;0.087;9.777;-0.146;0.079;0.257;-0.028;0.043;-0.032;160.0;-9.9;12.6;-50.9;45.4;-0.6;4.2;0.0;1022.4;57.59;47.60089;-122.28128;-58.1;NaN;;5.9;9.67742;86.4;15 / 25;68006;2015-07-28 17:30:29:798
-0.649;0.251;9.249;-0.855;0.22;9.767;0.202;0.03;-0.467;0.037;0.007;0.016;75.0;-8.8;13.0;-51.0;44.1;-1.1;5.1;0.0;1022.5;57.72;47.60089;-122.28126;-61.3;NaN;;5.3;9.67742;86.1;15 / 25;69009;2015-07-28 17:30:30:801
-0.83;0.077;10.183;-0.924;0.056;9.763;0.047;0.016;0.531;0.011;-0.032;0.01;118.0;-8.2;13.0;-51.3;43.9;-0.3;5.4;0.0;1022.5;56.73;47.60089;-122.28125;-61.3;NaN;;5.2;9.67742;82.4;15 / 25;70007;2015-07-28 17:30:31:799
-0.749;0.192;9.323;-0.775;0.245;9.773;-0.009;-0.068;-0.22;-0.005;-0.004;-0.001;87.0;-9.4;12.2;-51.6;44.4;-1.6;4.6;0.0;1022.5;48.04;47.6009;-122.28123;-61.3;NaN;;5.7;9.67742;82.3;15 / 25;71007;2015-07-28 17:30:32:799
-0.966;0.134;10.21;-0.763;0.109;9.776;-0.183;0.01;0.428;0.014;0.008;-0.003;101.0;-9.6;13.1;-50.9;45.8;-0.6;4.5;0.0;1022.5;58.0;47.6009;-122.2812;-61.3;NaN;;5.7;9.67742;80.4;15 / 25;72007;2015-07-28 17:30:33:799
-0.409;-0.073;9.761;-0.664;0.07;9.784;0.307;-0.129;0.284;-0.082;-0.019;0.037;145.0;-10.7;12.7;-51.4;47.2;-0.4;3.9;0.0;1022.5;56.29;47.6009;-122.28118;-61.3;NaN;;5.9;9.67742;80.6;15 / 25;73008;2015-07-28 17:30:34:800
-0.392;0.155;9.251;-0.559;0.261;9.787;0.122;-0.083;-0.352;-0.012;-0.032;0.022;143.0;-10.3;12.8;-51.0;42.1;-1.8;3.6;0.0;1022.5;60.67;47.6009;-122.28116;-61.3;NaN;;5.6;9.67742;77.8;15 / 25;74007;2015-07-28 17:30:35:799
-0.784;0.173;9.501;-0.714;0.197;9.779;-0.087;-0.018;0.006;-0.019;0.009;0.017;153.0;-10.1;13.5;-51.1;42.1;-1.2;4.1;0.0;1022.5;62.06;47.60091;-122.28114;-61.3;NaN;;5.6;9.67742;77.9;14 / 25;75007;2015-07-28 17:30:36:799
-0.958;0.288;8.822;-0.708;0.151;9.78;-0.259;0.135;-0.76;-0.031;0.051;-0.003;139.0;-9.3;13.5;-50.9;39.8;-0.9;3.7;0.0;1022.4;59.51;47.60091;-122.28112;-61.3;NaN;;5.6;9.67742;78.2;15 / 25;76007;2015-07-28 17:30:37:799
-0.746;0.23;9.451;-0.938;0.271;9.758;0.235;-0.049;-0.197;0.038;0.027;0.011;143.0;-7.6;13.4;-51.2;41.8;-1.6;5.5;0.0;1022.5;59.57;47.60091;-122.28111;-61.3;NaN;;5.8;9.67742;74.6;15 / 25;77007;2015-07-28 17:30:38:799
-0.827;0.041;10.032;-0.913;-0.05;9.764;-0.072;0.112;0.342;-0.041;-0.07;-0.001;186.0;-7.6;14.6;-51.0;41.0;0.2;5.6;0.0;1022.5;66.97;47.60091;-122.28109;-61.3;NaN;;6.0;9.67742;75.0;11 / 15;78007;2015-07-28 17:30:39:799
-0.291;0.137;8.773;-0.594;0.367;9.782;0.251;-0.189;-0.633;0.019;0.01;0.007;122.0;-9.8;12.8;-50.7;41.3;-2.1;3.5;0.0;1022.4;67.63;47.60092;-122.28108;-61.3;NaN;;5.7;9.67742;77.4;11 / 15;79007;2015-07-28 17:30:40:799
-1.28;0.208;10.068;-0.687;0.016;9.783;-0.671;0.195;0.911;-0.002;-0.019;0.016;70.0;-8.6;13.6;-51.3;41.7;-0.1;4.0;0.0;1022.5;61.4;47.60092;-122.28105;-61.3;NaN;;5.7;9.67742;76.4;11 / 15;80007;2015-07-28 17:30:41:799
-0.6;0.268;9.447;-0.674;0.266;9.78;-0.059;0.034;0.245;0.015;0.061;0.015;96.0;-9.0;12.8;-50.4;40.9;-1.6;3.9;0.0;1022.5;64.46;47.60092;-122.28103;-61.3;NaN;;5.7;9.67742;73.1;11 / 15;81008;2015-07-28 17:30:42:800
-0.646;0.136;9.349;-0.606;0.022;9.788;-0.039;0.108;-0.41;0.007;-0.033;-0.005;93.0;-8.7;14.4;-50.8;41.3;0.0;3.8;0.0;1022.5;62.93;47.60092;-122.28101;-61.3;NaN;;5.6;9.67742;77.2;11 / 15;82007;2015-07-28 17:30:43:799
-0.598;0.153;10.043;-0.678;0.281;9.779;0.069;-0.123;0.44;0.034;0.014;0.007;49.0;-9.5;13.9;-51.1;39.1;-1.6;4.0;0.0;1022.5;58.09;47.60093;-122.28099;-61.3;NaN;;5.7;9.67742;77.2;11 / 15;83007;2015-07-28 17:30:44:799
-0.715;0.138;9.479;-0.668;0.062;9.784;-0.064;0.079;-0.008;-0.015;-0.002;0.006;52.0;-9.0;14.0;-50.9;41.0;-0.4;3.9;0.0;1022.5;63.64;47.60093;-122.28098;-64.5;NaN;;5.4;9.67742;76.9;15 / 25;84007;2015-07-28 17:30:45:799
-0.571;0.241;9.671;-0.644;0.219;9.783;0.097;-0.001;0.059;0.006;0.005;-0.012;55.0;-8.6;14.2;-50.6;39.3;-1.2;3.8;0.0;1022.5;61.6;47.60093;-122.28095;-64.5;NaN;;5.3;9.67742;79.8;10 / 14;85007;2015-07-28 17:30:46:799
-0.193;-0.016;9.889;-0.392;0.022;9.799;0.184;0.012;0.215;0.007;-0.042;-0.004;56.0;-10.2;15.1;-50.5;40.1;0.0;3.0;0.0;1022.5;54.73;47.60093;-122.28094;-64.5;NaN;;5.3;9.67742;79.8;10 / 14;86007;2015-07-28 17:30:47:799
-0.746;0.183;9.142;-0.575;0.155;9.789;-0.201;-0.009;-0.046;-0.066;0.01;0.006;53.0;-9.8;13.5;-51.4;41.6;-1.4;3.0;0.0;1022.5;54.72;47.60093;-122.28091;-67.7;NaN;;5.4;9.67742;79.2;10 / 15;87007;2015-07-28 17:30:48:799
-0.544;0.225;9.575;-0.577;0.292;9.785;0.013;-0.066;-0.051;0.04;0.023;0.022;53.0;-9.3;13.8;-51.0;37.7;-1.7;3.4;0.0;1022.5;55.59;47.60094;-122.28089;-67.7;NaN;;5.6;9.67742;75.1;14 / 25;88007;2015-07-28 17:30:49:799
-0.674;0.177;9.554;-0.588;0.051;9.789;-0.105;0.132;-0.033;-0.035;-0.008;-0.008;57.0;-9.2;14.4;-50.5;40.2;-0.3;3.4;0.0;1022.5;56.86;47.60094;-122.28087;-67.7;NaN;;5.6;9.67742;75.0;15 / 25;89007;2015-07-28 17:30:50:799
-0.524;0.211;9.143;-0.665;0.317;9.779;0.12;-0.075;-0.514;0.062;0.028;-0.006;52.0;-9.1;14.7;-51.1;36.8;-1.9;3.9;0.0;1022.5;54.31;47.60094;-122.28085;-64.5;NaN;;5.1;9.67742;73.9;15 / 25;90008;2015-07-28 17:30:51:800
-0.892;0.09;10.309;-1.006;0.145;9.754;0.157;-0.057;0.636;0.034;0.039;0.051;63.0;-7.9;14.1;-50.9;42.0;-0.8;5.9;0.0;1022.5;53.18;47.60095;-122.28083;-64.5;NaN;;5.7;9.67742;73.8;15 / 25;91007;2015-07-28 17:30:52:799
-1.478;0.096;9.927;-1.049;-0.037;9.75;-0.396;0.137;0.146;-0.092;-0.033;-0.021;69.0;-6.7;14.6;-51.4;39.2;-0.1;6.0;0.0;1022.5;57.07;47.60095;-122.2808;-64.5;NaN;;5.4;9.67742;75.0;11 / 15;92008;2015-07-28 17:30:53:800
-0.877;0.329;8.269;-0.872;0.49;9.755;0.168;-0.146;-1.387;-0.006;0.024;-0.003;49.0;-7.3;13.2;-51.3;36.6;-2.9;5.1;0.0;1022.4;55.25;47.60096;-122.28078;-64.5;NaN;;5.4;9.67742;75.0;15 / 25;93007;2015-07-28 17:30:54:799
-0.727;0.249;8.708;-0.873;0.133;9.767;0.155;0.106;-0.718;0.04;-0.026;0.012;60.0;-7.2;14.2;-51.2;39.3;-0.4;5.4;0.0;1022.5;56.25;47.60097;-122.28076;-64.5;NaN;;5.6;9.67742;72.5;15 / 25;94007;2015-07-28 17:30:55:799
-0.863;0.212;10.231;-0.809;0.265;9.77;-0.039;-0.045;0.383;0.076;-0.014;0.008;66.0;-7.9;14.7;-51.3;36.7;-1.5;4.7;0.0;1022.5;56.43;47.60097;-122.28075;-64.5;NaN;;5.4;9.67742;72.3;15 / 25;95007;2015-07-28 17:30:56:799
-0.576;-0.024;10.367;-0.697;0.0;9.782;0.096;-0.028;0.731;-0.073;0.0;-0.022;62.0;-8.7;14.5;-50.8;40.0;0.0;4.1;0.0;1022.5;54.14;47.60098;-122.28072;-61.3;NaN;;5.7;9.67742;72.8;15 / 25;96007;2015-07-28 17:30:57:799
-0.849;0.071;10.022;-0.766;0.033;9.777;-0.124;0.073;-0.021;-0.047;0.005;-0.006;60.0;-8.8;14.7;-50.5;40.5;-0.2;4.5;0.0;1022.5;54.22;47.60098;-122.2807;-64.5;NaN;;5.3;9.67742;73.1;15 / 25;97008;2015-07-28 17:30:58:800
-0.865;0.078;9.544;-0.916;0.16;9.762;0.076;-0.047;-0.256;-0.087;0.025;-0.002;59.0;-7.4;13.6;-50.7;37.7;-1.3;5.3;0.0;1022.4;54.18;47.60098;-122.28068;-64.5;NaN;;5.4;9.67742;73.3;15 / 25;98007;2015-07-28 17:30:59:799
-0.986;0.324;8.382;-0.837;0.235;9.768;-0.121;0.018;-1.375;-0.031;-0.03;-0.011;59.0;-7.8;13.5;-51.5;38.7;-1.8;5.1;0.0;1022.4;51.32;47.60099;-122.28066;-64.5;NaN;;5.4;9.67742;73.3;15 / 25;99007;2015-07-28 17:31:00:799
-0.755;0.335;9.057;-0.767;0.247;9.773;0.014;0.088;-0.755;0.063;-0.007;-0.019;63.0;-8.6;13.6;-51.2;41.0;-1.1;4.5;0.0;1022.5;55.51;47.60099;-122.28064;-61.3;NaN;;5.4;9.67742;77.3;15 / 25;100007;2015-07-28 17:31:01:799
-0.727;0.134;9.436;-0.919;0.223;9.761;0.161;-0.089;-0.073;0.039;0.022;0.043;59.0;-8.6;14.3;-51.1;42.6;-1.1;5.4;0.0;1022.5;56.11;47.60099;-122.28062;-61.3;NaN;;5.1;9.67742;77.3;15 / 25;101007;2015-07-28 17:31:02:799
-1.418;0.218;9.961;-0.969;0.098;9.758;-0.392;0.098;0.159;-0.041;-0.036;-0.007;68.0;-7.3;14.5;-51.2;37.8;-0.6;5.7;0.0;1022.5;57.92;47.60099;-122.2806;-61.3;NaN;;5.5;9.67742;78.3;15 / 25;102007;2015-07-28 17:31:03:799
-0.323;0.135;9.804;-0.48;0.172;9.793;-0.022;0.022;0.163;0.028;0.018;-0.027;65.0;-9.4;14.9;-50.6;36.4;-0.7;2.8;0.0;1022.5;55.17;47.601;-122.28058;-61.3;NaN;;5.8;9.67742;76.6;10 / 14;103007;2015-07-28 17:31:04:799
-0.515;0.119;9.422;-0.619;0.172;9.786;0.15;-0.027;-0.059;0.037;0.016;0.023;62.0;-9.5;14.8;-50.2;37.7;-0.9;3.7;0.0;1022.5;56.65;47.601;-122.28055;-61.3;NaN;;5.7;9.67742;81.4;10 / 14;104007;2015-07-28 17:31:05:799
-0.736;0.149;9.886;-0.676;0.136;9.782;-0.061;0.016;0.279;-0.05;-0.01;-0.017;61.0;-8.4;14.2;-51.6;37.9;-1.0;3.9;0.0;1022.5;59.22;47.601;-122.28054;-58.1;NaN;;5.5;9.67742;80.1;11 / 14;105007;2015-07-28 17:31:06:799
-0.647;0.155;9.245;-0.757;0.194;9.775;0.086;-0.03;-0.27;0.002;0.033;0.038;60.0;-8.4;14.6;-50.8;36.7;-1.1;4.4;0.0;1022.5;48.61;47.601;-122.28052;-58.1;NaN;;5.5;9.67742;77.6;11 / 15;106007;2015-07-28 17:31:07:799
-1.08;0.074;10.47;-0.815;0.075;9.772;-0.289;0.02;0.566;0.001;-0.022;-0.03;70.0;-7.3;14.7;-51.0;36.1;-0.3;4.7;0.0;1022.5;50.75;47.60101;-122.28049;-58.1;NaN;;5.6;9.67742;77.4;11 / 14;107007;2015-07-28 17:31:08:799
-0.562;0.107;9.466;-0.652;0.15;9.784;0.037;-0.045;0.211;-0.025;0.035;0.023;59.0;-9.4;14.4;-50.2;39.8;-0.9;3.8;0.0;1022.5;59.36;47.60101;-122.28047;-58.1;NaN;;5.5;9.67742;69.1;11 / 15;108007;2015-07-28 17:31:09:799
-0.484;0.162;9.315;-0.632;0.184;9.785;0.137;-0.022;-0.28;-0.046;-0.025;-0.004;61.0;-8.5;13.7;-50.6;39.3;-1.6;4.1;0.0;1022.5;57.82;47.60102;-122.28045;-58.1;NaN;;5.7;9.67742;67.6;11 / 14;109007;2015-07-28 17:31:10:799
-0.685;0.182;9.729;-0.703;0.125;9.781;0.008;0.06;0.17;0.012;-0.016;0.035;67.0;-8.5;16.0;-51.0;35.6;-0.5;4.3;0.0;1022.5;58.31;47.60102;-122.28045;-61.3;NaN;;5.2;9.67742;75.2;11 / 15;110008;2015-07-28 17:31:11:800
-0.614;0.292;8.903;-0.498;0.263;9.79;-0.147;0.037;-0.652;-0.019;-0.003;-0.007;74.0;-9.5;14.8;-51.0;35.1;-1.5;2.8;0.0;1022.4;57.49;47.60103;-122.28043;-61.3;NaN;;5.7;9.67742;66.6;10 / 14;111007;2015-07-28 17:31:12:799
-0.365;0.21;9.822;-0.564;0.285;9.786;0.213;-0.017;-0.071;0.036;0.022;0.014;65.0;-8.5;15.4;-50.8;33.9;-1.5;3.4;0.0;1022.5;58.56;47.60104;-122.28041;-61.3;NaN;;5.6;9.67742;67.2;10 / 14;112008;2015-07-28 17:31:13:800
-0.523;0.015;9.686;-0.588;-0.091;9.789;0.042;0.098;0.162;-0.014;-0.038;-0.001;78.0;-8.6;16.4;-50.1;37.6;0.5;3.4;0.0;1022.5;55.86;47.60104;-122.28039;-64.5;NaN;;5.4;9.67742;75.4;10 / 14;113007;2015-07-28 17:31:14:799
-0.349;0.2;9.511;-0.423;0.298;9.793;0.078;-0.079;-0.079;-0.041;0.019;0.013;66.0;-9.1;14.6;-50.8;33.8;-1.9;2.5;0.0;1022.5;53.58;47.60104;-122.28037;-64.5;NaN;;5.4;9.67742;75.2;11 / 14;114006;2015-07-28 17:31:15:798
-0.665;0.132;9.835;-0.677;0.158;9.782;0.008;-0.02;0.264;0.032;0.008;0.027;62.0;-8.4;16.1;-50.1;34.5;-0.6;3.9;0.0;1022.5;59.13;47.60105;-122.28035;-64.5;NaN;;5.4;9.67742;75.0;10 / 14;115007;2015-07-28 17:31:16:799
-0.841;0.108;9.61;-0.644;0.146;9.784;-0.164;-0.001;0.005;-0.102;0.01;-0.012;86.0;-7.4;14.9;-50.8;33.3;-0.9;3.8;0.0;1022.5;54.22;47.60106;-122.28033;-64.5;NaN;;5.8;9.67742;61.5;11 / 14;116007;2015-07-28 17:31:17:799
-0.386;0.229;8.933;-0.591;0.233;9.786;0.193;-0.008;-0.601;0.001;-0.004;0.009;77.0;-8.3;15.3;-50.8;34.3;-1.4;3.5;0.0;1022.5;59.64;47.60106;-122.28031;-64.5;NaN;;5.1;9.67742;61.8;11 / 15;117007;2015-07-28 17:31:18:799
-0.818;0.184;9.675;-0.626;0.106;9.786;-0.146;0.066;-0.182;0.012;-0.04;-0.006;89.0;-8.2;16.0;-50.7;34.5;-0.4;3.7;0.0;1022.5;56.85;47.60107;-122.2803;-64.5;NaN;;5.3;9.67742;63.1;10 / 14;118007;2015-07-28 17:31:19:799
-0.519;0.256;8.944;-0.521;0.252;9.79;-0.036;0.001;-0.303;-0.04;0.027;0.008;70.0;-8.8;15.2;-50.8;35.7;-1.5;3.0;0.0;1022.5;51.49;47.60109;-122.28029;-67.7;NaN;;5.4;9.67742;63.5;9 / 14;119007;2015-07-28 17:31:20:799
-0.586;0.211;9.575;-0.616;0.18;9.786;0.015;0.046;-0.328;-0.003;-0.02;-0.035;74.0;-7.7;15.5;-50.8;33.5;-1.1;3.6;0.0;1022.5;51.5;47.60109;-122.28027;-67.7;NaN;;5.7;9.67742;63.5;10 / 15;120008;2015-07-28 17:31:21:800
-0.375;0.103;10.283;-0.71;0.159;9.78;0.256;-0.082;0.83;0.081;0.011;0.039;71.0;-8.4;16.0;-50.5;35.0;-0.6;4.1;0.0;1022.5;50.55;47.6011;-122.28025;-67.7;NaN;;5.3;9.67742;70.8;11 / 15;121007;2015-07-28 17:31:22:799
-0.659;0.096;9.558;-0.598;0.017;9.788;-0.084;0.08;0.13;-0.062;-0.013;-0.016;86.0;-7.9;15.5;-51.0;35.9;-0.4;3.5;0.0;1022.5;50.78;47.6011;-122.28023;-67.7;NaN;;5.6;9.67742;70.9;10 / 13;122007;2015-07-28 17:31:23:799
-0.403;0.21;9.302;-0.622;0.293;9.782;0.185;-0.086;-0.17;0.054;0.015;0.012;73.0;-8.0;16.0;-50.7;33.2;-1.5;3.8;0.0;1022.5;55.84;47.60111;-122.28021;-67.7;NaN;;5.6;9.67742;62.2;10 / 14;123007;2015-07-28 17:31:24:799
-0.99;0.093;10.373;-0.81;0.025;9.773;-0.196;0.061;0.561;-0.043;0.017;-0.012;94.0;-6.5;15.8;-50.7;32.3;-0.1;4.7;0.0;1022.5;53.99;47.60112;-122.28019;-67.7;NaN;;5.3;9.67742;65.1;11 / 15;124007;2015-07-28 17:31:25:799
-0.8;0.161;9.187;-0.836;0.176;9.769;0.029;-0.003;-0.428;0.002;0.021;0.008;85.0;-7.4;15.9;-50.4;33.7;-1.0;4.9;0.0;1022.4;61.54;47.60112;-122.28018;-67.7;NaN;;5.3;9.67742;71.9;11 / 14;125009;2015-07-28 17:31:26:801
-0.741;0.102;9.663;-0.843;0.132;9.769;0.068;-0.029;0.046;-0.03;0.001;0.022;79.0;-6.2;16.3;-50.9;31.9;-0.8;4.9;0.0;1022.5;55.68;47.60113;-122.28016;-67.7;NaN;;5.5;9.67742;67.2;11 / 15;126008;2015-07-28 17:31:27:800
-0.572;0.21;8.965;-0.727;0.228;9.777;0.168;-0.028;-0.435;-0.041;-0.043;0.017;77.0;-6.0;15.9;-50.7;30.1;-1.5;4.5;0.0;1022.4;48.16;47.60114;-122.28015;-71.0;NaN;;5.6;9.67742;69.1;11 / 14;127007;2015-07-28 17:31:28:799
-0.565;0.254;9.443;-0.426;0.211;9.795;-0.11;0.025;-0.46;0.03;-0.039;-0.021;78.0;-7.9;16.5;-50.7;30.1;-1.0;2.7;0.0;1022.5;50.26;47.60114;-122.28013;-71.0;NaN;;5.9;9.67742;68.4;11 / 15;128008;2015-07-28 17:31:29:800
-0.408;0.058;10.392;-0.605;0.125;9.787;0.169;-0.062;1.001;0.0;0.047;0.023;75.0;-8.0;16.6;-50.5;31.8;-0.6;3.2;0.0;1022.5;59.85;47.60115;-122.28012;-71.0;NaN;;5.2;9.67742;67.2;11 / 14;129008;2015-07-28 17:31:30:800
-1.05;0.137;9.384;-0.917;0.18;9.762;-0.214;0.006;-0.081;-0.044;0.017;0.03;80.0;-6.1;16.2;-50.9;31.1;-1.3;4.9;0.0;1022.4;61.34;47.60116;-122.2801;-71.0;NaN;;5.8;9.67742;61.6;11 / 14;130008;2015-07-28 17:31:31:800
-0.653;0.239;9.274;-0.724;0.27;9.776;0.014;-0.002;-0.334;-0.006;-0.036;0.016;88.0;-6.0;15.8;-51.0;29.3;-1.6;4.2;0.0;1022.5;57.25;47.60116;-122.28008;-71.0;NaN;;5.9;9.67742;61.5;10 / 14;131007;2015-07-28 17:31:32:799
-0.645;0.082;9.973;-0.602;0.055;9.788;-0.097;0.056;0.313;0.03;0.005;0.025;150.0;-7.2;17.8;-50.5;28.8;0.0;3.3;0.0;1022.5;59.52;47.60117;-122.28006;-71.0;NaN;;5.3;9.67742;66.4;11 / 15;132007;2015-07-28 17:31:33:799
-0.431;0.109;9.862;-0.53;0.216;9.79;0.09;-0.099;0.077;0.051;0.021;0.022;142.0;-6.8;17.1;-50.4;28.3;-1.2;3.1;0.0;1022.5;59.97;47.60118;-122.28005;-71.0;NaN;;5.3;9.67742;66.0;11 / 15;133007;2015-07-28 17:31:34:799
-0.639;0.153;9.558;-0.574;0.108;9.789;-0.12;0.041;0.396;-0.094;-0.014;-0.023;135.0;-6.1;16.1;-50.9;28.0;-1.0;3.3;0.0;1022.5;50.09;47.60119;-122.28003;-67.7;NaN;;5.7;9.67742;54.1;11 / 15;134008;2015-07-28 17:31:35:800
-0.277;0.13;9.548;-0.3;0.137;9.801;0.053;-0.03;-0.075;0.022;-0.028;-0.038;120.0;-7.3;17.3;-51.0;26.6;-0.7;2.1;0.0;1022.5;59.95;47.6012;-122.28001;-67.7;NaN;;5.3;9.67742;59.3;11 / 15;135008;2015-07-28 17:31:36:800
-0.171;0.0;10.037;-0.279;0.064;9.802;0.193;-0.087;0.499;-0.009;-0.006;-0.026;123.0;-9.0;16.8;-50.4;31.5;-0.4;1.9;0.0;1022.5;53.08;47.6012;-122.27999;-67.7;NaN;;5.1;9.67742;60.3;11 / 15;136008;2015-07-28 17:31:37:800
-0.623;0.215;8.982;-0.463;0.269;9.792;-0.245;0.056;-0.637;-0.054;0.008;-0.024;107.0;-8.4;15.1;-50.6;32.4;-1.6;2.7;0.0;1022.4;60.92;47.6012;-122.27998;-64.5;NaN;;5.5;9.67742;65.0;10 / 14;137007;2015-07-28 17:31:38:799
-0.291;0.323;9.121;-0.343;0.289;9.796;0.033;0.031;-0.365;0.05;0.01;-0.014;107.0;-9.1;15.4;-50.9;33.5;-1.4;2.0;0.0;1022.5;57.66;47.60121;-122.27996;-67.7;NaN;;5.5;9.67742;63.6;10 / 13;138007;2015-07-28 17:31:39:799
-0.531;0.201;9.275;-0.55;0.158;9.79;-0.008;0.032;-0.239;0.046;-0.003;0.017;114.0;-8.5;16.9;-50.4;34.2;-0.3;3.2;0.0;1022.5;51.25;47.60121;-122.27994;-67.7;NaN;;5.7;9.67742;76.4;11 / 15;139007;2015-07-28 17:31:40:799
-0.72;0.258;9.867;-0.403;0.198;9.796;-0.197;0.059;0.181;-0.028;0.013;-0.019;107.0;-8.3;15.6;-50.9;30.1;-1.2;2.2;0.0;1022.5;54.75;47.60121;-122.27992;-67.7;NaN;;5.7;9.67742;56.4;11 / 15;140007;2015-07-28 17:31:41:799
0.057;0.058;9.412;-0.335;0.144;9.8;0.369;-0.077;-0.021;0.023;0.003;-0.007;110.0;-8.7;16.6;-50.5;31.7;-0.8;2.2;0.0;1022.4;53.44;47.60122;-122.2799;-64.5;NaN;;5.3;9.67742;56.9;11 / 15;141008;2015-07-28 17:31:42:800
-0.398;0.158;9.166;-0.455;0.158;9.795;0.062;-0.009;-0.238;-0.079;-0.022;0.012;108.0;-8.5;15.3;-50.7;35.7;-0.9;2.7;0.0;1022.4;52.06;47.60123;-122.27988;-64.5;NaN;;5.6;9.67742;60.9;11 / 15;142008;2015-07-28 17:31:43:800
-0.709;0.333;9.132;-0.305;0.242;9.799;-0.417;0.103;-0.603;0.033;-0.023;-0.027;102.0;-9.2;16.1;-50.4;32.0;-1.2;1.9;0.0;1022.4;56.8;47.60124;-122.27987;-64.5;NaN;;5.3;9.67742;61.9;11 / 15;143008;2015-07-28 17:31:44:800
-0.071;0.22;9.886;-0.249;0.233;9.801;0.214;-0.029;0.225;0.039;0.073;-0.022;104.0;-9.8;15.4;-50.5;34.7;-1.1;1.2;0.0;1022.5;52.32;47.60124;-122.27985;-64.5;NaN;;5.7;9.67742;68.1;11 / 14;144007;2015-07-28 17:31:45:799
-0.565;-0.016;9.853;-0.697;0.051;9.782;0.11;-0.064;0.264;-0.036;-0.044;0.051;117.0;-7.1;15.8;-50.6;33.9;-0.5;4.6;0.0;1022.5;51.3;47.60124;-122.27983;-67.7;NaN;;5.5;9.67742;68.8;11 / 15;145008;2015-07-28 17:31:46:800
-0.685;0.263;9.315;-0.498;0.238;9.791;-0.197;0.032;-0.24;-0.044;-0.02;0.018;108.0;-9.0;14.9;-51.0;35.5;-1.4;2.9;0.0;1022.5;52.78;47.60124;-122.27981;-67.7;NaN;;5.4;9.67742;71.5;11 / 15;146007;2015-07-28 17:31:47:799
-0.139;0.213;9.837;-0.292;0.267;9.799;0.147;-0.048;-0.059;0.127;0.044;-0.04;108.0;-8.9;16.5;-51.1;31.6;-1.1;1.6;0.0;1022.5;50.16;47.60125;-122.27979;-64.5;NaN;;5.4;9.67742;71.3;10 / 14;147007;2015-07-28 17:31:48:799
-0.366;-0.12;10.503;-0.459;-0.035;9.796;0.08;-0.066;0.97;0.001;-0.031;-0.024;114.0;-8.8;15.8;-50.6;35.7;0.2;2.7;0.0;1022.5;55.05;47.60125;-122.27977;-64.5;NaN;;5.0;9.67742;67.8;10 / 14;148008;2015-07-28 17:31:49:800
-0.539;0.046;9.291;-0.39;0.128;9.798;-0.163;-0.015;-0.55;-0.096;0.009;-0.029;111.0;-9.7;14.6;-50.8;37.5;-0.7;2.3;0.0;1022.5;61.1;47.60126;-122.27975;-64.5;NaN;;5.0;9.67742;69.3;11 / 15;149007;2015-07-28 17:31:50:799
-0.486;0.341;9.047;-0.44;0.331;9.791;0.007;0.017;-0.592;0.002;0.033;-0.02;88.0;-9.3;14.3;-51.0;35.5;-1.9;2.4;0.0;1022.4;63.77;47.60126;-122.27973;-64.5;NaN;;5.3;9.67742;76.2;11 / 15;150007;2015-07-28 17:31:51:799
-0.41;0.066;10.1;-0.644;0.124;9.785;0.209;-0.061;0.381;0.038;-0.012;0.011;117.0;-8.7;15.0;-50.7;38.3;-0.7;3.8;0.0;1022.5;58.02;47.60126;-122.27971;-67.7;NaN;;5.1;9.67742;75.5;11 / 15;151007;2015-07-28 17:31:52:799
-0.695;0.192;9.282;-0.686;0.237;9.78;-0.133;0.024;-0.298;-0.05;-0.024;0.002;104.0;-8.9;13.7;-51.0;39.5;-1.4;4.0;0.0;1022.5;56.59;47.60126;-122.27969;-67.7;NaN;;5.5;9.67742;74.9;11 / 15;152007;2015-07-28 17:31:53:799
-0.607;0.249;9.055;-0.495;0.238;9.791;-0.098;0.004;-0.362;0.049;0.009;-0.02;102.0;-9.7;14.0;-50.9;39.5;-1.4;2.9;0.0;1022.5;53.07;47.60126;-122.27967;-71.0;NaN;;5.0;9.67742;75.3;11 / 15;153007;2015-07-28 17:31:54:799
-0.326;0.083;10.196;-0.367;0.098;9.799;0.042;-0.016;0.413;0.033;-0.009;-0.025;96.0;-10.3;14.3;-50.5;40.0;-0.4;2.3;0.0;1022.5;55.41;47.60127;-122.27966;-71.0;NaN;;5.4;9.67742;74.8;11 / 15;154008;2015-07-28 17:31:55:800
-0.262;0.171;9.672;-0.402;0.205;9.796;0.128;-0.031;0.191;0.002;0.032;0.003;84.0;-11.0;13.2;-50.7;43.0;-1.2;2.4;0.0;1022.5;54.43;47.60127;-122.27964;-71.0;NaN;;5.7;9.67742;75.0;11 / 15;155007;2015-07-28 17:31:56:799
-0.592;0.174;9.604;-0.54;0.123;9.791;-0.059;0.037;0.0;-0.012;-0.009;-0.004;95.0;-9.3;13.9;-51.0;38.9;-0.7;3.1;0.0;1022.5;54.76;47.60127;-122.27962;-71.0;NaN;;5.6;9.67742;81.5;11 / 15;156007;2015-07-28 17:31:57:799
-0.221;0.115;9.847;-0.472;0.163;9.794;0.335;-0.045;0.206;0.012;0.005;0.013;90.0;-10.1;13.9;-51.0;40.8;-0.9;3.1;0.0;1022.5;49.06;47.60128;-122.2796;-71.0;NaN;;5.4;9.67742;76.2;11 / 15;157007;2015-07-28 17:31:58:799
-0.817;0.115;9.458;-0.835;0.198;9.769;-0.009;-0.076;-0.008;-0.018;0.001;0.047;102.0;-8.7;13.8;-50.8;41.6;-1.2;4.9;0.0;1022.4;50.24;47.60128;-122.27958;-67.7;NaN;;5.6;9.67742;76.3;11 / 15;158007;2015-07-28 17:31:59:799
-0.976;0.29;9.326;-0.776;0.194;9.774;-0.228;0.099;-0.155;-0.036;0.007;0.026;111.0;-8.5;14.5;-50.8;39.9;-1.3;4.2;0.0;1022.5;52.72;47.60128;-122.27956;-67.7;NaN;;5.8;9.67742;67.0;11 / 15;159010;2015-07-28 17:32:00:802
-0.438;0.266;9.38;-0.441;0.247;9.794;-0.082;0.092;-0.638;0.026;-0.007;-0.053;98.0;-9.2;14.5;-50.7;36.7;-1.2;2.5;0.0;1022.5;51.03;47.60129;-122.27954;-64.5;NaN;;5.7;9.67742;73.8;11 / 15;160006;2015-07-28 17:32:01:798
-0.273;0.056;10.323;-0.48;0.2;9.793;0.2;-0.064;0.278;0.097;0.009;-0.045;99.0;-10.1;14.7;-50.3;39.7;-0.3;3.1;0.0;1022.5;52.19;47.6013;-122.27952;-64.5;NaN;;5.6;9.67742;73.6;11 / 15;161008;2015-07-28 17:32:02:800
-0.729;-0.082;10.372;-0.653;-0.121;9.784;-0.109;0.046;0.997;-0.037;0.014;0.007;128.0;-9.2;14.6;-50.8;40.7;0.7;3.8;0.0;1022.5;53.77;47.6013;-122.2795;-64.5;NaN;;5.5;9.67742;73.6;11 / 15;162007;2015-07-28 17:32:03:799
-0.629;0.2;9.025;-0.654;0.334;9.779;-0.003;-0.12;-0.553;-0.042;0.003;-0.013;82.0;-9.1;12.7;-51.2;39.7;-2.2;3.8;0.0;1022.4;45.38;47.6013;-122.27947;-64.5;NaN;;6.1;9.67742;86.2;10 / 14;163007;2015-07-28 17:32:04:799
-0.788;0.183;10.046;-0.582;0.097;9.789;-0.233;0.113;0.099;-0.002;-0.034;-0.023;101.0;-9.5;14.0;-51.2;41.9;-0.6;3.4;0.0;1022.5;54.32;47.6013;-122.27946;-67.7;NaN;;5.5;9.67742;79.8;11 / 15;164009;2015-07-28 17:32:05:801
-0.115;0.169;9.308;-0.343;0.233;9.798;0.144;-0.023;-0.174;0.05;0.038;-0.03;84.0;-11.1;14.2;-50.6;40.4;-1.0;1.9;0.0;1022.4;54.94;47.60131;-122.27943;-67.7;NaN;;5.6;9.67742;79.6;11 / 15;165007;2015-07-28 17:32:06:799
-0.592;0.144;9.926;-0.661;0.147;9.783;0.069;-0.003;0.144;-0.011;0.008;-0.002;95.0;-9.2;12.7;-50.7;42.1;-1.0;4.0;0.0;1022.5;51.07;47.60131;-122.27941;-67.7;NaN;;6.0;9.67742;79.9;10 / 14;166008;2015-07-28 17:32:07:800
-0.328;0.194;9.798;-0.471;0.124;9.795;0.093;-0.004;0.297;0.034;-0.033;-0.027;83.0;-9.8;13.6;-50.9;40.4;-0.7;2.8;0.0;1022.5;52.25;47.60131;-122.27938;-71.0;NaN;;6.2;9.67742;81.7;11 / 15;167007;2015-07-28 17:32:08:799
-0.569;0.098;9.692;-0.49;0.1;9.794;0.11;-0.03;0.247;0.006;-0.021;0.035;77.0;-11.3;13.6;-51.1;43.3;-0.6;3.0;0.0;1022.5;50.19;47.60132;-122.27936;-71.0;NaN;;5.7;9.67742;81.3;11 / 15;168007;2015-07-28 17:32:09:799
-0.942;0.244;9.766;-0.466;0.263;9.792;-0.605;-0.01;0.385;-0.015;0.01;-0.006;74.0;-10.8;12.4;-51.1;44.8;-1.6;2.6;0.0;1022.5;60.85;47.60132;-122.27934;-67.7;NaN;;6.0;9.67742;70.2;11 / 15;169007;2015-07-28 17:32:10:799
-0.148;0.115;9.489;-0.296;0.065;9.802;0.131;0.061;-0.266;0.017;0.028;0.007;77.0;-11.4;13.7;-50.2;41.1;-0.4;1.7;0.0;1022.5;57.59;47.60133;-122.27932;-67.7;NaN;;6.3;9.67742;71.4;10 / 14;170008;2015-07-28 17:32:11:800
-0.95;0.178;10.429;-0.604;0.168;9.787;-0.384;0.01;0.981;-0.012;-0.037;0.0;77.0;-9.9;12.3;-51.3;45.8;-1.1;3.7;0.0;1022.5;52.81;47.60133;-122.2793;-67.7;NaN;;6.0;9.67742;72.7;10 / 14;171007;2015-07-28 17:32:12:799
-0.196;0.085;9.415;-0.26;0.038;9.803;-0.047;0.074;-0.022;-0.035;0.016;-0.027;35.0;-12.0;13.3;-50.4;44.7;-0.3;1.3;0.0;1022.4;62.01;47.60134;-122.27928;-67.7;NaN;;5.6;9.67742;70.9;11 / 15;172007;2015-07-28 17:32:13:799
-0.333;0.187;9.388;-0.475;0.266;9.792;0.128;-0.065;0.035;0.018;0.019;-0.001;47.0;-10.9;12.6;-51.0;43.2;-1.5;2.8;0.0;1022.5;59.78;47.60135;-122.27926;-64.5;NaN;;6.8;9.67742;82.1;11 / 15;173006;2015-07-28 17:32:14:798
-0.759;0.23;9.434;-0.495;0.131;9.793;-0.273;0.101;-0.208;-0.052;-0.03;0.001;47.0;-11.1;12.3;-51.4;46.9;-0.8;2.9;0.0;1022.4;56.94;47.60135;-122.27923;-64.5;NaN;;6.7;9.67742;84.8;10 / 14;174007;2015-07-28 17:32:15:799
0.113;0.197;9.868;-0.063;0.232;9.804;0.155;-0.025;0.117;0.086;0.02;-0.042;45.0;-12.5;13.3;-50.1;43.2;-1.4;0.4;0.0;1022.4;51.38;47.60135;-122.27921;-64.5;NaN;;5.9;9.67742;83.3;10 / 14;175007;2015-07-28 17:32:16:799
-0.085;0.046;9.814;-0.199;0.086;9.804;0.164;-0.022;0.115;0.009;-0.013;0.036;48.0;-12.3;12.8;-50.6;44.5;-0.5;1.4;0.0;1022.5;50.64;47.60135;-122.27918;-64.5;NaN;;6.8;9.67742;80.3;11 / 15;176007;2015-07-28 17:32:17:799
-0.319;0.102;9.72;-0.331;0.195;9.799;-0.025;-0.059;0.174;-0.019;0.0;0.029;45.0;-11.5;13.3;-50.9;44.1;-1.3;1.9;0.0;1022.5;50.13;47.60136;-122.27916;-67.7;NaN;;6.3;9.67742;78.4;11 / 15;177006;2015-07-28 17:32:18:798
-0.39;0.28;8.939;-0.183;0.178;9.803;-0.235;0.07;-0.608;-0.077;0.005;0.052;47.0;-12.1;12.8;-50.5;42.9;-1.0;1.1;0.0;1022.5;61.85;47.60136;-122.27913;-67.7;NaN;;6.0;9.67742;78.7;10 / 14;178007;2015-07-28 17:32:19:799
-0.185;0.235;9.547;-0.128;0.278;9.802;-0.03;-0.035;-0.149;0.039;-0.001;0.018;41.0;-12.1;13.7;-50.0;39.7;-1.5;0.8;0.0;1022.5;54.0;47.60136;-122.27911;-67.7;NaN;;6.2;9.67742;61.1;11 / 15;179007;2015-07-28 17:32:20:799
-0.09;0.164;9.788;-0.095;0.1;9.806;0.002;0.066;0.269;-0.005;-0.013;0.03;38.0;-12.6;14.6;-50.3;41.4;-0.4;0.6;0.0;1022.5;49.19;47.60137;-122.27909;-67.7;NaN;;6.4;9.67742;74.6;11 / 15;180007;2015-07-28 17:32:21:799
0.227;0.086;9.473;-0.015;0.214;9.804;0.212;-0.126;0.02;-0.019;0.025;0.043;40.0;-11.4;14.3;-50.7;36.2;-1.2;0.1;0.0;1022.5;48.02;47.60137;-122.27907;-67.7;NaN;;6.4;9.67742;78.3;11 / 15;181007;2015-07-28 17:32:22:799
0.316;-0.004;9.528;0.132;0.029;9.806;0.198;-0.033;-0.005;-0.027;-0.064;0.003;42.0;-12.2;15.4;-49.7;36.8;-0.2;-0.8;0.0;1022.4;53.36;47.60138;-122.27905;-67.7;NaN;;6.3;9.67742;68.1;10 / 14;182009;2015-07-28 17:32:23:801
0.236;0.115;9.564;0.275;0.11;9.802;-0.011;-0.011;0.117;-0.045;0.021;-0.02;44.0;-13.6;14.7;-49.4;39.1;-0.6;-1.6;0.0;1022.4;51.03;47.60139;-122.27903;-67.7;NaN;;6.2;9.67742;69.2;10 / 15;183007;2015-07-28 17:32:24:799
-0.38;0.338;8.728;0.043;0.26;9.803;-0.453;0.055;-0.655;-0.088;0.026;-0.041;39.0;-12.3;12.8;-50.4;38.6;-1.8;-0.4;0.0;1022.4;54.93;47.60139;-122.27901;-67.7;NaN;;6.3;9.67742;67.3;11 / 15;184007;2015-07-28 17:32:25:799
-0.202;0.392;8.482;-0.03;0.26;9.803;-0.227;0.128;-1.221;0.013;0.015;-0.047;40.0;-12.6;13.0;-50.5;42.2;-1.5;0.0;0.0;1022.4;57.07;47.6014;-122.27899;-67.7;NaN;;7.0;9.67742;65.5;11 / 15;185007;2015-07-28 17:32:26:799
0.299;0.159;10.065;0.048;0.101;9.806;0.256;0.034;0.417;0.047;-0.009;-0.052;39.0;-12.9;12.9;-50.5;43.3;-0.6;-0.3;0.0;1022.5;51.98;47.6014;-122.27897;-67.7;NaN;;5.4;9.67742;66.1;9 / 13;186007;2015-07-28 17:32:27:799
-0.226;0.151;9.487;-0.165;0.076;9.805;-0.027;0.052;0.172;-0.047;-0.018;0.005;39.0;-13.3;12.5;-50.5;47.9;-0.6;1.0;0.0;1022.5;48.32;47.6014;-122.27895;-67.7;NaN;;5.7;9.67742;79.2;9 / 13;187008;2015-07-28 17:32:28:800
-0.291;0.36;8.659;-0.084;0.432;9.797;-0.05;-0.074;-0.905;0.006;0.05;0.005;41.0;-12.7;11.0;-51.1;45.4;-2.5;0.5;0.0;1022.4;51.92;47.60141;-122.27892;-67.7;NaN;;6.5;9.67742;70.7;10 / 15;188009;2015-07-28 17:32:29:801
-0.265;0.206;9.992;-0.145;0.163;9.804;-0.079;0.057;-0.067;0.042;-0.048;0.014;40.0;-12.4;13.1;-50.5;44.5;-0.3;1.2;0.0;1022.5;54.21;47.60141;-122.2789;-71.0;NaN;;6.0;9.67742;79.0;11 / 15;189006;2015-07-28 17:32:30:798
-0.025;0.076;9.952;-0.084;0.094;9.806;0.02;-0.02;0.399;-0.026;0.052;0.002;49.0;-13.2;12.9;-50.7;44.9;-0.6;0.5;0.0;1022.5;62.74;47.60141;-122.27888;-71.0;NaN;;5.4;9.67742;74.9;11 / 15;190007;2015-07-28 17:32:31:799
-0.531;0.296;9.421;-0.404;0.31;9.793;-0.14;-0.006;-0.138;0.017;-0.002;0.019;60.0;-11.5;12.6;-50.8;43.9;-1.7;2.3;0.0;1022.5;53.25;47.60141;-122.27887;-67.7;NaN;;5.7;9.67742;75.0;11 / 15;191008;2015-07-28 17:32:32:800
-0.457;0.134;10.031;-0.455;0.094;9.796;-0.083;0.065;0.361;-0.006;0.017;0.015;117.0;-11.7;13.8;-50.6;44.7;-0.5;2.7;0.0;1022.5;56.52;47.60141;-122.27884;-67.7;NaN;;6.5;9.67742;70.4;10 / 14;192007;2015-07-28 17:32:33:799
-0.698;0.217;9.518;-0.593;0.164;9.787;-0.161;0.018;0.235;-0.045;0.007;0.037;114.0;-10.2;13.4;-51.1;42.4;-1.3;3.3;0.0;1022.5;55.43;47.60141;-122.27881;-64.5;NaN;;6.0;9.67742;77.0;11 / 15;193007;2015-07-28 17:32:34:799
-0.52;0.236;9.39;-0.377;0.168;9.798;-0.075;0.056;-0.216;0.009;-0.038;0.014;114.0;-11.4;14.3;-50.4;41.0;-1.0;2.2;0.0;1022.5;55.09;47.60142;-122.2788;-64.5;NaN;;6.4;9.67742;75.3;11 / 15;194007;2015-07-28 17:32:35:799
-0.358;0.201;9.294;-0.49;0.321;9.789;0.058;-0.099;-0.157;0.007;0.042;0.044;121.0;-9.4;13.5;-50.7;37.5;-2.1;2.7;0.0;1022.5;54.76;47.60142;-122.27878;-67.7;NaN;;6.9;9.67742;69.6;11 / 15;195007;2015-07-28 17:32:36:799
-0.355;0.115;10.048;-0.324;-0.023;9.801;-0.062;0.177;0.125;0.044;-0.024;-0.045;153.0;-9.5;15.8;-50.3;35.4;0.7;2.2;0.0;1022.5;59.54;47.60143;-122.27876;-71.0;NaN;;6.1;9.67742;72.2;11 / 15;196007;2015-07-28 17:32:37:799
-0.066;0.383;8.658;-0.185;0.391;9.797;0.121;0.009;-0.681;-0.025;0.036;-0.022;107.0;-11.2;13.0;-50.5;38.4;-2.3;1.0;0.0;1022.4;62.72;47.60143;-122.27874;-71.0;NaN;;6.2;9.67742;74.3;10 / 14;197007;2015-07-28 17:32:38:799
-0.631;0.289;9.848;-0.43;0.023;9.797;-0.166;0.103;1.048;0.099;-0.04;-0.03;153.0;-10.1;15.1;-50.6;39.8;0.3;2.6;0.0;1022.6;53.12;47.60143;-122.27872;-71.0;NaN;;6.2;9.67742;77.2;10 / 14;198007;2015-07-28 17:32:39:799
-0.018;0.146;10.313;-0.311;0.254;9.798;0.36;-0.222;0.926;0.056;0.042;-0.011;107.0;-11.3;13.4;-51.3;41.4;-1.5;1.8;0.0;1022.5;53.54;47.60144;-122.27869;-71.0;NaN;;6.2;9.67742;75.3;11 / 15;199007;2015-07-28 17:32:40:799
-0.577;-0.096;10.627;-0.567;-0.135;9.789;-0.288;0.125;0.802;-0.103;-0.029;0.025;148.0;-9.9;13.9;-50.9;43.7;0.3;3.5;0.0;1022.5;50.72;47.60144;-122.27866;-71.0;NaN;;6.4;9.67742;76.8;10 / 14;200014;2015-07-28 17:32:41:806
-0.971;0.288;9.113;-0.434;0.274;9.793;-0.437;0.042;-0.47;-0.039;0.022;-0.032;100.0;-10.8;12.3;-51.3;44.7;-1.6;2.5;0.0;1022.4;52.28;47.60145;-122.27865;-67.7;NaN;;6.8;9.67742;69.4;11 / 15;201008;2015-07-28 17:32:42:800
0.239;0.183;9.307;-0.009;0.124;9.806;0.316;0.052;-0.083;0.037;-0.016;0.001;105.0;-12.2;14.5;-50.7;39.2;-0.3;0.6;0.0;1022.5;58.73;47.60146;-122.27863;-67.7;NaN;;6.0;9.67742;69.6;11 / 15;202007;2015-07-28 17:32:43:799
-0.366;0.153;10.03;-0.379;0.191;9.797;-0.02;-0.016;0.483;-0.031;-0.003;0.019;112.0;-10.6;13.8;-50.6;40.9;-1.1;2.2;0.0;1022.5;53.0;47.60146;-122.2786;-64.5;NaN;;6.2;9.67742;76.3;10 / 14;203007;2015-07-28 17:32:44:799
-0.198;0.096;9.927;-0.112;0.104;9.805;-0.015;0.034;-0.017;-0.03;0.008;-0.014;120.0;-11.6;14.0;-50.1;40.6;-0.7;0.6;0.0;1022.4;57.85;47.60147;-122.27858;-61.3;NaN;;6.1;9.67742;75.1;11 / 15;204007;2015-07-28 17:32:45:799
0.177;0.027;9.206;-0.053;0.146;9.805;0.225;-0.102;-0.186;-0.005;-0.019;0.002;111.0;-12.6;13.8;-50.3;42.0;-0.9;0.3;0.0;1022.5;49.17;47.60147;-122.27856;-61.3;NaN;;5.7;9.67742;77.0;11 / 15;205007;2015-07-28 17:32:46:799
-0.363;0.111;9.842;-0.177;0.211;9.803;-0.194;0.023;0.098;-0.052;0.017;-0.007;105.0;-11.5;13.1;-50.3;42.5;-1.2;1.0;0.0;1022.5;62.04;47.60148;-122.27854;-61.3;NaN;;6.0;9.67742;75.5;10 / 14;206007;2015-07-28 17:32:47:799
-0.614;0.112;9.553;-0.21;0.172;9.803;-0.623;0.135;-0.576;-0.017;-0.002;-0.007;94.0;-11.4;13.0;-50.8;39.8;-1.1;0.8;0.0;1022.4;54.67;47.60148;-122.27852;-67.7;NaN;;6.1;9.67742;76.7;11 / 15;207007;2015-07-28 17:32:48:799
-0.133;0.212;9.116;-0.056;0.235;9.804;0.046;0.048;-0.706;-0.01;0.029;-0.024;96.0;-12.1;13.4;-50.5;40.9;-1.4;0.3;0.0;1022.5;52.64;47.60147;-122.2785;-71.0;NaN;;5.0;9.67742;77.6;11 / 15;208006;2015-07-28 17:32:49:798
-0.23;0.248;9.426;-0.319;0.212;9.799;-0.058;0.023;-0.098;0.048;-0.032;-0.001;105.0;-11.8;13.6;-50.5;42.1;-1.2;1.9;0.0;1022.5;52.36;47.60148;-122.27849;-71.0;NaN;;6.2;9.67742;78.3;10 / 14;209007;2015-07-28 17:32:50:799
-0.34;0.073;10.309;-0.337;0.134;9.8;-0.143;0.041;0.509;-0.029;0.014;0.025;101.0;-11.9;13.6;-50.9;43.1;-0.8;2.0;0.0;1022.5;54.53;47.60148;-122.27846;-71.0;NaN;;6.1;9.67742;78.1;11 / 15;210009;2015-07-28 17:32:51:801
0.059;0.115;9.033;-0.151;0.188;9.804;0.201;-0.079;-0.492;-0.022;0.017;0.001;82.0;-12.5;12.8;-50.4;42.4;-1.2;1.0;0.0;1022.4;57.3;47.60148;-122.27845;-74.2;NaN;;5.9;9.67742;72.5;11 / 15;211007;2015-07-28 17:32:52:799
-0.371;0.192;9.604;-0.319;0.242;9.798;-0.209;0.046;-0.187;-0.053;-0.037;0.007;82.0;-11.5;12.8;-50.8;41.6;-1.4;1.9;0.0;1022.5;52.19;47.60149;-122.27842;-71.0;NaN;;5.8;9.67742;69.5;11 / 15;212007;2015-07-28 17:32:53:799
-0.075;0.153;9.194;-0.145;0.148;9.804;0.065;-0.009;-0.227;-0.005;0.03;-0.001;83.0;-12.8;13.9;-50.4;42.5;-0.9;0.7;0.0;1022.5;55.76;47.60149;-122.2784;-71.0;NaN;;5.7;9.67742;70.7;11 / 15;213008;2015-07-28 17:32:54:800
-0.179;0.164;9.703;-0.285;0.287;9.798;0.078;-0.107;0.124;0.001;-0.025;0.041;81.0;-11.4;12.5;-50.6;43.2;-1.9;2.1;0.0;1022.5;59.18;47.60149;-122.27838;-71.0;NaN;;5.9;9.67742;79.4;11 / 15;214007;2015-07-28 17:32:55:799
-0.344;0.141;9.408;-0.176;0.162;9.804;-0.18;0.157;-0.405;-0.054;0.004;0.035;87.0;-11.9;12.8;-50.4;43.0;-0.9;1.0;0.0;1022.5;59.29;47.6015;-122.27835;-71.0;NaN;;5.8;9.67742;70.0;11 / 15;215007;2015-07-28 17:32:56:799
-0.117;0.307;8.539;-0.099;0.29;9.802;-0.021;0.061;-0.999;0.029;-0.004;0.03;94.0;-12.6;14.4;-49.8;41.2;-1.6;0.6;0.0;1022.4;63.41;47.6015;-122.27833;-67.7;NaN;;5.9;9.67742;76.9;10 / 14;216007;2015-07-28 17:32:57:799
-0.382;0.345;9.268;-0.285;0.365;9.796;-0.089;-0.006;-0.349;0.01;-0.006;0.065;101.0;-11.6;14.1;-51.0;40.4;-2.0;1.6;0.0;1022.5;62.8;47.6015;-122.27831;-71.0;NaN;;5.7;9.67742;75.6;11 / 15;217007;2015-07-28 17:32:58:799
-0.6;0.096;10.489;-0.381;0.014;9.799;-0.208;0.068;0.881;-0.003;-0.001;0.026;127.0;-9.8;15.6;-50.4;36.3;-0.1;2.1;0.0;1022.5;46.08;47.60151;-122.27829;-71.0;NaN;;5.8;9.67742;75.0;11 / 15;218007;2015-07-28 17:32:59:799
-0.141;0.315;8.158;-0.094;0.289;9.802;-0.058;0.041;-1.824;-0.039;0.002;-0.032;102.0;-11.0;14.5;-50.6;36.6;-1.7;0.5;0.0;1022.4;56.74;47.60152;-122.27827;-67.7;NaN;;5.4;9.67742;66.6;10 / 14;219007;2015-07-28 17:33:00:799
-0.229;0.272;9.43;-0.126;0.209;9.804;-0.009;0.017;-0.055;0.043;-0.01;-0.021;101.0;-11.1;15.0;-50.6;36.3;-1.0;0.8;0.0;1022.6;53.93;47.60152;-122.27826;-71.0;NaN;;5.0;9.67742;67.1;11 / 15;220007;2015-07-28 17:33:01:799
0.078;0.085;10.179;-0.195;0.094;9.804;0.248;-0.019;0.628;0.015;0.02;0.008;117.0;-11.2;15.5;-50.6;37.8;-0.5;1.1;0.0;1022.5;46.9;47.60153;-122.27824;-71.0;NaN;;5.3;9.67742;73.0;10 / 14;221007;2015-07-28 17:33:02:799
-0.208;0.019;9.826;-0.241;0.105;9.803;0.004;-0.075;0.141;-0.055;-0.012;-0.005;114.0;-10.5;15.0;-50.8;38.2;-0.6;1.4;0.0;1022.5;51.65;47.60154;-122.27822;-67.7;NaN;;5.7;9.67742;69.0;10 / 14;222007;2015-07-28 17:33:03:799
-0.208;0.251;9.614;-0.119;0.265;9.802;-0.133;0.007;0.049;0.001;-0.02;-0.01;96.0;-12.0;14.4;-50.6;39.4;-1.6;0.7;0.0;1022.5;52.98;47.60154;-122.2782;-64.5;NaN;;5.3;9.67742;69.2;11 / 15;223007;2015-07-28 17:33:04:799
-0.251;0.195;9.762;-0.108;0.164;9.805;-0.126;0.029;0.056;0.031;0.032;-0.024;104.0;-11.4;14.8;-50.7;35.5;-0.7;0.2;0.0;1022.5;55.32;47.60155;-122.27818;-64.5;NaN;;5.2;9.67742;68.5;11 / 15;224007;2015-07-28 17:33:05:799
0.247;0.019;9.988;-0.146;0.097;9.805;0.422;-0.071;0.449;0.026;0.002;-0.003;108.0;-11.0;14.8;-50.7;37.9;-0.6;1.2;0.0;1022.5;54.25;47.60155;-122.27816;-64.5;NaN;;5.4;9.67742;69.0;11 / 15;225008;2015-07-28 17:33:06:800
-0.559;0.182;8.921;-0.303;0.201;9.8;-0.345;0.077;-0.759;-0.094;-0.038;0.012;99.0;-10.8;13.7;-50.4;39.9;-1.2;1.8;0.0;1022.4;46.92;47.60156;-122.27814;-61.3;NaN;;5.7;9.67742;76.8;11 / 15;226007;2015-07-28 17:33:07:799
-0.257;0.378;9.262;-0.117;0.327;9.801;0.164;-0.043;-0.061;0.116;0.07;-0.033;96.0;-11.3;15.2;-50.3;35.2;-1.5;0.5;0.0;1022.5;50.57;47.60156;-122.27812;-64.5;NaN;;5.7;9.67742;76.7;11 / 15;227007;2015-07-28 17:33:08:799
-0.147;0.005;10.31;-0.201;-0.045;9.804;0.035;0.054;0.523;-0.054;-0.055;-0.002;120.0;-11.0;14.4;-50.7;41.8;0.1;1.6;0.0;1022.5;50.72;47.60156;-122.2781;-64.5;NaN;;5.4;9.67742;93.3;10 / 14;228007;2015-07-28 17:33:09:799
-0.372;0.278;9.03;-0.209;0.309;9.8;-0.166;0.006;-0.3;-0.048;0.044;0.0;92.0;-11.9;13.0;-50.3;39.9;-2.4;0.7;0.0;1022.4;48.48;47.60156;-122.27808;-67.7;NaN;;5.5;9.67742;70.5;11 / 15;229007;2015-07-28 17:33:10:799
-0.204;0.411;8.654;-0.044;0.204;9.804;-0.065;0.152;-0.788;0.073;-0.021;-0.064;100.0;-11.5;13.8;-50.5;39.1;-1.2;0.3;0.0;1022.5;58.63;47.60157;-122.27806;-71.0;NaN;;4.7;9.67742;71.2;11 / 15;230008;2015-07-28 17:33:11:800
0.269;0.134;10.257;-0.167;0.174;9.804;0.402;-0.115;1.047;0.072;0.006;-0.016;90.0;-12.2;14.4;-51.0;40.8;-1.0;1.0;0.0;1022.5;55.28;47.60157;-122.27804;-71.0;NaN;;5.3;9.67742;88.3;11 / 15;231007;2015-07-28 17:33:12:799
-0.282;0.081;10.133;-0.114;0.073;9.806;-0.166;0.015;0.592;-0.008;-0.03;0.015;87.0;-12.1;13.0;-50.2;43.3;-0.4;0.7;0.0;1022.5;59.64;47.60157;-122.27802;-71.0;NaN;;5.4;9.67742;91.8;11 / 15;232009;2015-07-28 17:33:13:801
-0.305;0.087;10.196;-0.216;0.051;9.804;-0.144;0.013;0.846;-0.062;0.042;0.036;99.0;-12.0;13.5;-50.8;43.8;-0.6;1.1;0.0;1022.5;53.73;47.60157;-122.27799;-71.0;NaN;;5.4;9.67742;73.0;11 / 15;233007;2015-07-28 17:33:14:799
-0.163;0.197;8.953;-0.173;0.308;9.8;0.008;-0.094;-0.637;-0.009;-0.031;0.034;94.0;-11.3;14.0;-50.2;37.5;-1.9;1.1;0.0;1022.4;47.69;47.60157;-122.27797;-74.2;NaN;;5.7;9.67742;72.4;11 / 15;234007;2015-07-28 17:33:15:799
-0.363;0.219;9.523;-0.182;0.192;9.803;-0.109;0.092;-0.187;-0.039;0.011;0.026;100.0;-11.3;14.2;-50.2;38.5;-1.1;1.1;0.0;1022.4;53.61;47.60158;-122.27796;-71.0;NaN;;4.9;9.67742;72.5;11 / 15;235008;2015-07-28 17:33:16:800
0.059;0.115;9.613;-0.168;0.295;9.801;0.157;-0.127;-0.113;0.032;-0.017;0.067;100.0;-10.9;14.6;-50.7;36.4;-1.7;1.3;0.0;1022.5;54.18;47.60158;-122.27795;-71.0;NaN;;5.4;9.67742;69.1;11 / 15;236012;2015-07-28 17:33:17:804
-0.298;0.07;9.642;-0.165;0.06;9.805;-0.186;0.058;0.132;-0.074;-0.003;0.031;109.0;-11.0;15.3;-50.2;37.7;-0.3;1.0;0.0;1022.5;47.94;47.60159;-122.27793;-67.7;NaN;;4.9;9.67742;68.9;9 / 13;237007;2015-07-28 17:33:18:799
-0.056;0.249;9.596;-0.119;0.38;9.799;0.133;-0.147;-0.022;0.047;0.014;0.067;105.0;-10.9;15.0;-49.9;34.4;-2.2;0.7;0.0;1022.5;58.1;47.60159;-122.27791;-71.0;NaN;;4.8;9.67742;65.8;10 / 14;238009;2015-07-28 17:33:19:801
-0.078;-0.019;10.19;-0.131;-0.068;9.806;0.033;0.029;0.467;-0.035;0.003;0.019;138.0;-9.7;18.0;-50.1;31.1;0.4;0.8;0.0;1022.5;60.03;47.6016;-122.27789;-67.7;NaN;;5.1;9.67742;65.6;11 / 15;239008;2015-07-28 17:33:20:800
0.214;0.211;9.218;-0.056;0.347;9.8;0.27;-0.099;-0.201;-0.076;0.001;0.014;104.0;-9.7;15.3;-50.9;31.5;-2.4;0.5;0.0;1022.4;55.45;47.6016;-122.27787;-67.7;NaN;;5.3;9.67742;61.0;11 / 15;240020;2015-07-28 17:33:21:812
-0.14;0.173;9.593;0.019;0.036;9.807;-0.157;0.126;-0.33;0.069;-0.023;-0.042;123.0;-10.5;17.5;-50.2;32.4;-0.2;-0.1;0.0;1022.5;58.86;47.60161;-122.27785;-64.5;NaN;;4.8;9.67742;61.4;11 / 15;241007;2015-07-28 17:33:22:799
0.478;0.096;10.284;0.07;0.25;9.803;0.398;-0.142;0.763;-0.001;0.03;-0.003;109.0;-10.9;16.1;-50.0;31.2;-1.4;-0.6;0.0;1022.5;54.89;47.60161;-122.27783;-64.5;NaN;;5.0;9.67742;64.0;11 / 15;242007;2015-07-28 17:33:23:799
-0.127;0.0;9.548;-0.177;0.063;9.805;-0.01;-0.017;-0.05;-0.087;-0.014;0.001;122.0;-9.4;15.6;-50.7;30.7;-1.0;1.1;0.0;1022.5;62.62;47.60161;-122.27781;-64.5;NaN;;4.9;9.67742;64.3;11 / 15;243008;2015-07-28 17:33:24:800
0.001;0.288;9.253;0.069;0.291;9.802;-0.08;0.018;-0.216;-0.006;-0.025;-0.019;107.0;-11.2;15.3;-50.3;32.9;-1.7;-0.4;0.0;1022.4;66.03;47.60162;-122.2778;-61.3;NaN;;4.6;9.67742;64.1;10 / 14;244007;2015-07-28 17:33:25:799
0.351;0.23;9.261;0.283;0.233;9.8;0.158;-0.048;-0.298;0.066;0.021;-0.019;109.0;-12.2;16.4;-50.1;33.0;-0.8;-1.4;0.0;1022.4;53.98;47.60163;-122.27779;-61.3;NaN;;4.8;9.67742;68.9;11 / 15;245008;2015-07-28 17:33:26:800
0.149;-0.043;10.319;0.063;0.03;9.806;0.069;-0.077;0.629;0.007;-0.018;0.01;109.0;-11.2;16.0;-50.7;33.6;-0.3;-0.3;0.0;1022.5;60.62;47.60163;-122.27777;-61.3;NaN;;5.3;9.67742;69.0;10 / 14;246007;2015-07-28 17:33:27:799
0.323;0.138;9.205;0.176;0.276;9.801;-0.015;-0.002;-0.484;-0.078;-0.002;0.031;106.0;-11.9;14.7;-50.1;33.7;-1.9;-1.0;0.0;1022.4;62.06;47.60164;-122.27776;-61.3;NaN;;4.4;9.67742;61.2;10 / 15;247007;2015-07-28 17:33:28:799
-0.224;0.326;9.371;0.073;0.224;9.804;-0.263;0.08;-0.269;0.046;0.006;-0.02;107.0;-10.8;16.2;-50.6;31.8;-1.3;-0.4;0.0;1022.5;54.68;47.60165;-122.27775;-61.3;NaN;;4.1;9.67742;61.5;10 / 15;248006;2015-07-28 17:33:29:798
0.466;0.13;9.601;0.347;0.133;9.8;0.135;-0.022;-0.105;0.022;-0.004;-0.025;104.0;-11.9;16.7;-49.9;30.7;-0.5;-1.8;0.0;1022.5;53.19;47.60165;-122.27773;-61.3;NaN;;4.4;9.67742;62.3;10 / 15;249007;2015-07-28 17:33:30:799
-0.056;0.115;10.095;-0.017;0.167;9.805;-0.035;-0.052;0.574;-0.029;0.007;0.0;92.0;-10.7;15.4;-50.5;35.0;-1.0;0.1;0.0;1022.5;57.77;47.60165;-122.27772;-61.3;NaN;;4.4;9.67742;62.6;10 / 15;250007;2015-07-28 17:33:31:799
0.403;0.134;9.185;0.271;0.071;9.803;0.155;0.08;-0.336;-0.047;-0.005;-0.008;114.0;-12.5;15.7;-49.4;33.2;-0.6;-1.4;0.0;1022.4;53.2;47.60166;-122.27771;-61.3;NaN;;4.4;9.67742;71.1;11 / 15;251007;2015-07-28 17:33:32:799
-0.109;0.398;9.084;0.046;0.454;9.796;-0.135;-0.056;-0.483;0.085;0.003;-0.034;116.0;-11.3;15.0;-50.4;32.1;-2.2;-0.4;0.0;1022.5;59.05;47.60166;-122.2777;-61.3;NaN;;4.8;9.67742;71.5;10 / 14;252008;2015-07-28 17:33:33:800
0.215;0.096;9.772;0.132;0.061;9.806;0.082;0.035;0.101;0.046;0.013;0.003;118.0;-11.8;15.8;-50.4;35.1;-0.2;-0.8;0.0;1022.5;54.64;47.60166;-122.27768;-61.3;NaN;;4.2;9.67742;70.1;11 / 15;253007;2015-07-28 17:33:34:799
-0.096;0.249;9.374;0.109;0.126;9.805;-0.178;0.144;-0.046;-0.11;0.008;-0.028;110.0;-12.0;14.2;-50.5;37.2;-1.0;-0.8;0.0;1022.4;52.06;47.60167;-122.27767;-61.3;NaN;;4.4;9.67742;69.4;10 / 14;254007;2015-07-28 17:33:35:799
0.174;0.365;8.789;0.222;0.401;9.796;-0.024;-0.046;-0.812;0.088;-0.019;-0.033;59.0;-12.5;14.0;-50.1;34.1;-2.3;-1.3;0.0;1022.4;55.3;47.60167;-122.27766;-61.3;NaN;;3.9;9.67742;69.2;10 / 14;255008;2015-07-28 17:33:36:800
0.53;0.0;10.413;0.216;-0.035;9.804;0.251;0.015;0.866;-0.02;-0.001;0.002;86.0;-13.6;14.9;-50.0;41.2;0.1;-1.1;0.0;1022.5;48.87;47.60168;-122.27765;-61.3;NaN;;4.2;9.67742;76.9;11 / 15;256007;2015-07-28 17:33:37:799
-0.092;0.308;8.966;0.035;0.345;9.801;-0.142;-0.007;-0.385;-0.005;0.004;-0.011;66.0;-13.3;13.4;-50.3;40.3;-2.1;-0.5;0.0;1022.4;51.9;47.60168;-122.27763;-61.3;NaN;;4.0;9.67742;76.8;11 / 15;257007;2015-07-28 17:33:38:799
0.281;0.127;10.213;0.182;0.063;9.805;0.072;-0.015;0.547;0.025;0.005;-0.009;86.0;-13.2;15.1;-50.1;38.2;-0.4;-1.1;0.0;1022.5;53.8;47.60169;-122.27762;-58.1;NaN;;4.4;9.67742;71.1;11 / 15;258007;2015-07-28 17:33:39:799
0.177;0.23;9.129;0.182;0.218;9.803;-0.029;0.008;-0.258;-0.019;-0.036;-0.014;60.0;-13.3;13.4;-50.4;40.5;-1.3;-1.1;0.0;1022.4;52.23;47.60169;-122.2776;-54.8;NaN;;4.7;9.67742;77.9;11 / 15;259007;2015-07-28 17:33:40:799
0.213;0.307;9.312;0.295;0.312;9.797;0.074;-0.016;-0.19;0.029;0.056;0.004;69.0;-13.4;13.3;-50.3;38.1;-1.5;-2.0;0.0;1022.5;61.81;47.6017;-122.27758;-58.1;NaN;;4.2;9.67742;77.2;11 / 15;260007;2015-07-28 17:33:41:799
0.245;0.153;9.788;0.18;0.007;9.805;0.019;0.089;0.159;0.002;-0.061;-0.014;65.0;-13.4;14.8;-49.9;38.8;0.0;-1.1;0.0;1022.5;68.4;47.60169;-122.27756;-54.8;NaN;;4.6;9.67742;78.4;12 / 15;261006;2015-07-28 17:33:42:798
0.269;0.402;8.832;0.347;0.403;9.792;-0.029;0.012;-0.503;0.015;0.037;0.016;78.0;-14.7;12.9;-49.7;41.3;-2.4;-2.0;0.0;1022.4;62.02;47.60169;-122.27754;-58.1;NaN;;4.5;9.67742;86.3;12 / 15;262007;2015-07-28 17:33:43:799
-0.209;0.355;9.462;0.239;0.191;9.802;-0.277;0.149;-0.115;0.012;-0.018;-0.028;91.0;-12.9;13.5;-50.1;38.1;-0.9;-1.5;0.0;1022.5;55.13;47.6017;-122.27752;-58.1;NaN;;4.8;9.67742;85.6;11 / 14;263007;2015-07-28 17:33:44:799
0.672;0.153;9.529;0.562;0.1;9.79;0.159;0.058;-0.03;-0.01;0.0;-0.028;78.0;-14.9;13.9;-49.2;40.4;-0.6;-3.1;0.0;1022.4;52.76;47.6017;-122.2775;-58.1;NaN;;4.6;9.67742;77.4;11 / 15;264007;2015-07-28 17:33:45:799
0.034;0.273;8.576;0.078;0.355;9.8;-0.148;-0.051;-1.147;-0.003;0.001;0.034;86.0;-13.9;13.1;-50.0;42.3;-2.3;-0.4;0.0;1022.4;67.55;47.6017;-122.27748;-58.1;NaN;;4.9;9.67742;84.9;11 / 15;265007;2015-07-28 17:33:46:799
0.007;0.359;9.694;0.179;0.303;9.8;-0.227;0.074;-0.459;0.057;-0.006;-0.02;80.0;-14.2;13.7;-49.9;40.5;-1.5;-1.1;0.0;1022.5;59.01;47.60171;-122.27747;-61.3;NaN;;4.6;9.67742;83.1;11 / 15;266007;2015-07-28 17:33:47:799
0.304;0.058;10.32;0.105;0.07;9.806;0.23;-0.019;0.685;-0.033;0.029;0.035;91.0;-13.9;13.7;-50.3;43.2;-0.4;-0.6;0.0;1022.5;52.04;47.60171;-122.27745;-61.3;NaN;;4.6;9.67742;78.4;10 / 14;267008;2015-07-28 17:33:48:800
-0.017;0.134;9.539;0.069;0.1;9.806;-0.091;0.035;-0.137;-0.009;-0.023;0.006;94.0;-13.7;14.2;-50.4;43.2;-0.6;-0.4;0.0;1022.5;58.1;47.60171;-122.27743;-61.3;NaN;;4.4;9.67742;78.8;11 / 15;268007;2015-07-28 17:33:49:799
0.097;0.192;9.54;-0.117;0.432;9.796;0.194;-0.197;0.167;-0.018;0.065;0.065;91.0;-12.5;12.9;-50.7;41.3;-2.7;0.6;0.0;1022.5;58.5;47.60172;-122.27742;-58.1;NaN;;5.0;9.67742;69.4;11 / 15;269007;2015-07-28 17:33:50:799
-0.377;0.288;9.111;-0.104;0.031;9.806;-0.271;0.258;-0.429;-0.051;-0.076;0.008;119.0;-11.6;15.1;-50.2;39.9;-0.2;0.8;0.0;1022.5;59.51;47.60172;-122.2774;-61.3;NaN;;4.8;9.67742;70.1;11 / 15;270007;2015-07-28 17:33:51:799
0.499;0.305;8.826;0.222;0.549;9.789;0.305;-0.247;-0.743;0.112;0.046;0.018;94.0;-13.7;14.7;-49.6;36.1;-2.6;-1.6;0.0;1022.4;59.15;47.60173;-122.2774;-61.3;NaN;;4.4;9.67742;66.5;11 / 15;271007;2015-07-28 17:33:52:799
0.319;0.012;10.516;0.131;0.042;9.806;0.224;-0.059;1.193;-0.007;-0.033;-0.026;101.0;-12.4;15.1;-50.4;37.5;-0.1;-0.5;0.0;1022.6;61.46;47.60173;-122.27738;-61.3;NaN;;4.6;9.67742;68.2;11 / 15;272007;2015-07-28 17:33:53:799
0.247;0.039;10.452;0.112;0.079;9.806;0.032;0.025;0.668;-0.108;0.015;0.008;95.0;-13.1;14.3;-50.3;40.8;-0.5;-0.7;0.0;1022.6;62.75;47.60172;-122.27736;-64.5;NaN;;4.9;9.67742;82.7;11 / 15;273007;2015-07-28 17:33:54:799
-0.344;0.326;8.843;0.005;0.283;9.803;-0.348;0.048;-0.786;-0.038;-0.001;-0.021;97.0;-11.8;13.9;-50.4;36.9;-1.7;-0.4;0.0;1022.4;65.1;47.60172;-122.27734;-64.5;NaN;;4.3;9.67742;81.8;11 / 15;274008;2015-07-28 17:33:55:800
0.241;0.298;9.376;0.224;0.231;9.801;0.097;0.07;-0.219;0.009;0.021;-0.014;97.0;-13.2;14.3;-50.1;38.2;-1.2;-1.3;0.0;1022.5;55.22;47.60173;-122.27732;-67.7;NaN;;4.7;9.67742;79.0;11 / 15;275007;2015-07-28 17:33:56:799
-0.209;0.298;8.955;-0.272;0.34;9.797;-0.013;0.016;-0.439;-0.029;0.003;0.024;101.0;-11.3;13.6;-50.4;38.1;-2.0;1.5;0.0;1022.4;61.14;47.60173;-122.27731;-67.7;NaN;;4.9;9.67742;79.0;11 / 15;276021;2015-07-28 17:33:57:813
-0.189;0.345;9.423;-0.189;0.355;9.798;-0.034;-0.03;-0.242;0.092;0.001;0.022;105.0;-11.4;15.0;-50.5;35.5;-2.1;1.1;0.0;1022.5;59.17;47.60173;-122.27729;-67.7;NaN;;4.6;9.67742;74.6;11 / 15;277006;2015-07-28 17:33:58:798
-0.003;0.149;9.807;0.059;0.065;9.806;-0.076;0.085;0.156;-0.009;-0.038;-0.011;99.0;-11.6;15.5;-50.3;37.9;-0.2;-0.2;0.0;1022.4;56.59;47.60173;-122.27727;-64.5;NaN;;4.8;9.67742;74.4;11 / 15;278007;2015-07-28 17:33:59:799
0.193;0.106;10.027;0.075;0.131;9.805;0.269;-0.012;0.592;-0.022;0.039;0.026;101.0;-12.1;14.7;-50.1;36.6;-0.8;-0.4;0.0;1022.4;57.52;47.60174;-122.27726;-64.5;NaN;;4.5;9.67742;71.7;10 / 14;279007;2015-07-28 17:34:00:799
-0.171;0.195;9.957;-0.264;0.285;9.799;-0.058;0.006;0.24;-0.021;-0.016;0.023;108.0;-10.6;14.6;-50.4;36.7;-1.9;1.6;0.0;1022.5;56.72;47.60175;-122.27725;-67.7;NaN;;4.8;9.67742;71.8;10 / 14;280007;2015-07-28 17:34:01:799
0.135;0.176;9.111;0.09;0.131;9.805;0.045;0.082;-0.325;-0.044;0.018;-0.007;112.0;-11.6;15.6;-50.5;34.4;-0.8;-0.6;0.0;1022.4;52.29;47.60176;-122.27723;-64.5;NaN;;4.2;9.67742;67.3;11 / 15;281008;2015-07-28 17:34:02:800
-0.332;0.364;9.045;-0.288;0.445;9.792;-0.021;-0.088;-0.51;0.002;-0.011;0.001;101.0;-10.6;13.9;-50.8;37.5;-2.6;1.7;0.0;1022.4;57.71;47.60176;-122.27721;-64.5;NaN;;4.8;9.67742;67.9;12 / 15;282006;2015-07-28 17:34:03:798
0.04;0.23;9.539;-0.046;0.122;9.806;0.129;0.052;-0.006;0.01;0.014;-0.015;105.0;-10.6;14.9;-50.2;35.9;-0.6;0.3;0.0;1022.4;57.43;47.60176;-122.27719;-64.5;NaN;;4.6;9.67742;70.7;11 / 14;283007;2015-07-28 17:34:04:799
-0.152;0.28;9.93;-0.107;0.191;9.804;-0.06;0.041;0.321;0.047;-0.035;-0.006;102.0;-11.5;15.2;-50.6;38.1;-1.1;0.6;0.0;1022.5;49.66;47.60176;-122.27718;-64.5;NaN;;4.5;9.67742;71.2;11 / 15;284007;2015-07-28 17:34:05:799
-0.018;0.192;9.6;-0.049;0.221;9.804;0.025;-0.024;0.001;-0.005;0.033;0.002;94.0;-11.5;13.9;-50.4;38.5;-1.4;0.1;0.0;1022.4;56.69;47.60176;-122.27716;-64.5;NaN;;4.9;9.67742;68.5;11 / 15;285007;2015-07-28 17:34:06:799
0.131;0.207;9.718;-0.007;0.213;9.804;0.123;-0.01;0.018;0.034;-0.017;-0.012;59.0;-11.0;14.7;-50.1;35.5;-0.9;0.3;0.0;1022.4;60.1;47.60176;-122.27715;-64.5;NaN;;5.2;9.67742;69.5;10 / 14;286007;2015-07-28 17:34:07:799
0.078;0.077;10.19;-0.007;0.067;9.806;-0.011;0.02;0.437;-0.044;-0.012;0.004;36.0;-11.7;15.2;-50.2;38.0;-0.6;0.1;0.0;1022.5;63.07;47.60176;-122.27713;-67.7;NaN;;4.5;9.67742;66.8;11 / 15;287007;2015-07-28 17:34:08:799
-0.248;0.247;9.717;-0.094;0.248;9.803;-0.224;0.055;0.042;-0.048;0.005;-0.02;37.0;-12.2;13.9;-50.9;39.3;-1.4;0.6;0.0;1022.4;57.75;47.60177;-122.27711;-64.5;NaN;;5.1;9.67742;67.2;11 / 15;288007;2015-07-28 17:34:09:799
0.073;0.288;8.718;0.052;0.343;9.801;0.003;-0.044;-0.944;0.024;0.045;-0.022;33.0;-12.0;14.1;-50.4;36.5;-1.9;-0.5;0.0;1022.4;62.64;47.60178;-122.27709;-64.5;NaN;;4.9;9.67742;65.8;10 / 14;289007;2015-07-28 17:34:10:799
0.059;0.134;10.439;-0.034;0.059;9.806;0.068;0.037;0.777;-0.006;-0.064;-0.013;46.0;-12.2;14.5;-50.3;38.5;-0.3;0.2;0.0;1022.5;62.79;47.60178;-122.27708;-64.5;NaN;;5.0;9.67742;66.0;11 / 14;290007;2015-07-28 17:34:11:799
0.328;0.249;8.888;0.27;0.307;9.798;0.138;-0.099;-0.475;0.029;0.03;0.009;38.0;-13.5;13.9;-49.9;36.7;-1.8;-1.6;0.0;1022.4;61.26;47.60178;-122.27706;-64.5;NaN;;4.6;9.67742;71.2;11 / 14;291007;2015-07-28 17:34:12:799
-0.207;0.134;10.033;-0.159;0.146;9.804;-0.036;0.021;0.395;-0.049;-0.018;0.012;74.0;-11.9;13.9;-50.8;40.8;-1.0;1.0;0.0;1022.4;57.41;47.60179;-122.27704;-64.5;NaN;;4.8;9.67742;69.2;11 / 15;292006;2015-07-28 17:34:13:798
0.111;0.361;8.929;0.096;0.373;9.799;-0.014;-0.003;-0.447;0.029;0.02;0.014;56.0;-12.0;13.6;-50.6;35.6;-2.1;-0.7;0.0;1022.4;65.12;47.60179;-122.27702;-64.5;NaN;;4.8;9.67742;69.6;11 / 15;293007;2015-07-28 17:34:14:799
0.049;0.249;9.472;0.077;0.054;9.806;0.034;0.08;0.078;0.041;-0.006;-0.011;60.0;-12.0;15.6;-50.5;35.5;-0.3;-0.5;0.0;1022.4;64.62;47.60179;-122.27701;-64.5;NaN;;4.9;9.67742;67.8;11 / 15;294007;2015-07-28 17:34:15:799
0.034;0.249;9.682;-0.011;0.231;9.804;0.065;0.02;0.12;0.006;0.038;0.009;82.0;-12.0;14.2;-50.5;38.4;-1.3;0.1;0.0;1022.4;65.08;47.6018;-122.27699;-61.3;NaN;;5.2;9.67742;67.6;11 / 15;295008;2015-07-28 17:34:16:800
-0.215;0.091;10.064;-0.214;0.101;9.804;-0.03;0.012;0.456;-0.054;-0.03;0.016;98.0;-10.6;14.4;-50.6;39.3;-1.0;1.4;0.0;1022.4;59.38;47.6018;-122.27698;-61.3;NaN;;4.8;9.67742;68.5;11 / 15;296007;2015-07-28 17:34:17:799
-0.592;0.478;8.522;0.021;0.284;9.803;-0.58;0.195;-1.057;-0.049;0.017;-0.019;72.0;-11.3;13.7;-50.8;35.1;-1.7;-0.1;0.0;1022.4;66.33;47.60181;-122.27696;-61.3;NaN;;4.5;9.67742;68.3;11 / 15;297007;2015-07-28 17:34:18:799
-0.129;0.311;9.35;-0.133;0.369;9.799;-0.066;0.038;-0.298;0.1;0.015;0.013;76.0;-11.4;14.5;-50.7;35.3;-1.5;0.6;0.0;1022.4;71.83;47.60181;-122.27695;-61.3;NaN;;3.9;9.67742;71.2;11 / 15;298007;2015-07-28 17:34:19:799
-0.133;0.131;10.354;-0.065;0.077;9.806;-0.078;0.005;0.763;0.02;-0.035;-0.002;82.0;-10.8;15.2;-50.3;36.4;-0.4;0.4;0.0;1022.5;63.99;47.60181;-122.27695;-61.3;NaN;;3.9;9.67742;71.2;12 / 15;299007;2015-07-28 17:34:20:799
0.143;0.104;9.788;0.089;0.143;9.805;0.054;0.034;0.208;-0.03;0.009;0.013;45.0;-12.6;14.6;-49.9;38.6;-0.8;-0.5;0.0;1022.4;67.9;47.60182;-122.27693;-58.1;NaN;;4.4;9.67742;77.2;11 / 14;300008;2015-07-28 17:34:21:800
-0.511;0.182;9.688;-0.232;0.153;9.803;-0.284;0.041;0.064;-0.053;0.023;-0.009;82.0;-11.2;14.6;-50.4;36.0;-1.3;0.8;0.0;1022.5;68.32;47.60182;-122.27691;-58.1;NaN;;4.8;9.67742;76.2;12 / 15;301007;2015-07-28 17:34:22:799
-0.034;0.176;9.345;-0.12;0.337;9.8;0.041;-0.083;-0.208;0.043;0.003;0.013;48.0;-11.6;14.2;-50.5;39.0;-1.8;0.7;0.0;1022.4;68.72;47.60183;-122.27689;-58.1;NaN;;4.8;9.67742;67.8;12 / 15;302007;2015-07-28 17:34:23:799
-0.266;0.153;9.805;-0.045;0.035;9.806;-0.222;0.138;0.139;-0.042;-0.057;-0.002;84.0;-11.8;14.5;-50.6;40.2;-0.6;0.3;0.0;1022.4;68.18;47.60183;-122.27687;-58.1;NaN;;4.9;9.67742;67.9;12 / 15;303007;2015-07-28 17:34:24:799
0.346;0.288;9.405;0.277;0.286;9.799;0.074;0.002;-0.159;0.051;0.06;-0.025;45.0;-13.3;14.3;-50.0;36.8;-1.7;-1.6;0.0;1022.4;67.3;47.60183;-122.27686;-58.1;NaN;;4.5;9.67742;68.6;12 / 15;304007;2015-07-28 17:34:25:799
0.064;0.029;10.041;-0.037;0.0;9.807;0.1;0.039;0.322;-0.005;-0.022;-0.018;120.0;-11.7;15.0;-50.2;39.4;0.0;0.4;0.0;1022.4;70.35;47.60184;-122.27684;-58.1;NaN;;4.5;9.67742;69.7;12 / 15;305007;2015-07-28 17:34:26:799
-0.015;0.211;9.788;-0.165;0.299;9.801;0.031;-0.065;0.197;0.009;0.035;0.027;95.0;-11.8;13.9;-50.7;39.6;-1.7;1.0;0.0;1022.4;64.4;47.60184;-122.27682;-58.1;NaN;;4.7;9.67742;66.4;12 / 15;306007;2015-07-28 17:34:27:799
-0.328;0.211;9.191;-0.204;0.126;9.804;-0.174;0.099;-0.334;-0.039;-0.029;-0.016;55.0;-11.2;14.1;-50.5;39.0;-0.9;1.1;0.0;1022.4;68.95;47.60184;-122.27681;-58.1;NaN;;4.8;9.67742;66.6;11 / 14;307007;2015-07-28 17:34:28:799
-0.615;0.288;9.323;-0.247;0.272;9.8;-0.257;-0.005;-0.198;0.022;0.058;-0.049;55.0;-11.6;13.4;-51.0;42.7;-1.6;1.4;0.0;1022.4;68.42;47.60185;-122.2768;-58.1;NaN;;4.4;9.67742;67.6;12 / 15;308007;2015-07-28 17:34:29:799
-0.056;0.211;9.651;-0.271;0.264;9.799;0.215;-0.067;-0.118;0.052;0.017;-0.027;38.0;-10.7;13.8;-50.9;39.8;-1.2;1.8;0.0;1022.5;63.52;47.60186;-122.27678;-58.1;NaN;;4.2;9.67742;67.4;11 / 14;309007;2015-07-28 17:34:30:799
-0.615;0.115;10.612;-0.466;0.079;9.795;-0.233;0.011;1.221;0.02;-0.03;-0.036;46.0;-10.4;13.6;-50.9;40.8;-0.7;2.9;0.0;1022.5;60.48;47.60186;-122.27677;-54.8;NaN;;4.9;9.67742;81.2;11 / 14;310007;2015-07-28 17:34:31:799
-0.236;0.127;9.041;-0.432;0.089;9.797;0.184;0.054;-0.465;-0.106;0.061;-0.026;48.0;-11.4;11.9;-50.3;45.7;-0.9;2.4;0.0;1022.4;51.56;47.60186;-122.27675;-54.8;NaN;;4.8;9.67742;80.9;9 / 12;311007;2015-07-28 17:34:32:799
-1.014;0.345;9.272;-0.956;0.349;9.754;-0.188;0.016;-0.175;0.029;-0.004;-0.033;40.0;-8.7;11.8;-50.6;45.3;-1.9;5.4;0.0;1022.5;61.31;47.60186;-122.27672;-58.1;NaN;;6.0;9.67742;83.3;12 / 15;312007;2015-07-28 17:34:33:799
-0.775;0.249;9.82;-0.809;0.225;9.771;-0.007;0.039;0.281;0.032;0.006;-0.019;35.0;-10.1;12.0;-51.4;47.8;-1.0;4.7;0.0;1022.5;67.87;47.60187;-122.2767;-58.1;NaN;;5.3;9.67742;83.1;11 / 14;313006;2015-07-28 17:34:34:798
-0.579;0.159;9.438;-0.8;0.208;9.772;0.147;-0.008;0.006;-0.042;-0.017;0.045;40.0;-10.5;11.6;-51.0;47.3;-1.4;5.0;0.0;1022.4;61.92;47.60187;-122.27668;-58.1;NaN;;6.6;9.67742;84.9;10 / 13;314007;2015-07-28 17:34:35:799
-1.033;0.198;9.109;-0.833;0.29;9.767;-0.374;0.068;-0.793;-0.011;-0.02;0.046;51.0;-9.7;11.9;-51.1;46.7;-1.7;4.9;0.0;1022.5;62.67;47.60187;-122.27666;-58.1;NaN;;6.7;9.67742;78.5;12 / 15;315007;2015-07-28 17:34:36:799
-1.09;0.287;9.578;-0.757;0.198;9.775;-0.27;0.117;-0.075;0.055;0.02;0.04;77.0;-10.3;13.9;-50.9;42.8;-1.2;4.4;0.0;1022.5;61.78;47.60187;-122.27663;-61.3;NaN;;6.5;9.67742;87.1;12 / 15;316007;2015-07-28 17:34:37:799
-0.401;0.144;8.969;-0.597;0.214;9.786;0.165;-0.077;-0.586;-0.039;-0.035;0.048;87.0;-9.7;12.9;-51.0;42.9;-1.3;3.5;0.0;1022.4;64.9;47.60187;-122.27661;-58.1;NaN;;7.9;9.67742;86.8;10 / 13;317007;2015-07-28 17:34:38:799
-0.192;0.078;9.596;-0.311;0.084;9.801;0.103;-0.002;-0.099;0.019;-0.055;0.005;87.0;-11.0;15.0;-50.6;39.9;-0.4;2.1;0.0;1022.5;60.83;47.60187;-122.27658;-54.8;NaN;;6.8;9.67742;78.1;12 / 15;318007;2015-07-28 17:34:39:799
-0.256;0.115;9.21;-0.196;0.16;9.803;-0.084;-0.012;-0.042;-0.035;0.034;0.011;79.0;-11.0;14.6;-50.6;37.2;-0.9;1.1;0.0;1022.4;62.64;47.60188;-122.27656;-51.6;NaN;;7.0;9.67742;67.4;12 / 15;319007;2015-07-28 17:34:40:799
-0.344;0.072;9.472;-0.327;0.064;9.801;0.027;0.047;-0.246;0.0;0.032;-0.007;84.0;-10.5;14.5;-50.7;39.2;-0.4;1.9;0.0;1022.4;62.5;47.60188;-122.27653;-51.6;NaN;;7.1;9.67742;72.3;11 / 14;320007;2015-07-28 17:34:41:799
-0.468;0.335;9.099;-0.373;0.212;9.797;-0.104;0.119;-0.362;-0.001;-0.026;-0.038;77.0;-9.7;13.6;-51.1;38.6;-1.2;2.3;0.0;1022.4;53.63;47.60188;-122.27651;-54.8;NaN;;6.7;9.67742;73.7;11 / 14;321007;2015-07-28 17:34:42:799
0.232;0.058;9.769;-0.19;0.14;9.804;0.297;-0.074;-0.099;0.067;0.008;0.013;84.0;-11.4;15.1;-50.1;37.3;-0.8;1.1;0.0;1022.5;61.12;47.60189;-122.27648;-54.8;NaN;;6.6;9.67742;75.4;11 / 14;322007;2015-07-28 17:34:43:799
-0.751;0.235;9.328;-0.524;0.139;9.792;-0.237;0.089;0.071;-0.065;-0.028;0.012;77.0;-10.6;13.4;-51.1;44.5;-1.0;3.0;0.0;1022.4;62.46;47.6019;-122.27646;-54.8;NaN;;8.1;9.67742;68.7;12 / 15;323007;2015-07-28 17:34:44:799
-0.1;0.283;9.146;-0.124;0.396;9.798;0.024;-0.097;-0.73;0.054;0.029;0.023;61.0;-12.1;13.2;-50.6;40.3;-2.1;0.6;0.0;1022.4;61.9;47.60191;-122.27643;-54.8;NaN;;6.9;9.67742;68.1;12 / 15;324007;2015-07-28 17:34:45:799
-0.65;0.096;10.096;-0.481;-0.004;9.795;-0.208;0.105;0.497;-0.07;-0.012;0.051;87.0;-10.3;14.5;-50.6;41.2;-0.2;2.7;0.0;1022.5;70.75;47.60191;-122.27641;-54.8;NaN;;6.8;9.67742;74.9;9 / 12;325007;2015-07-28 17:34:46:799
-0.029;0.203;8.984;-0.128;0.228;9.803;0.132;-0.032;-0.663;0.036;0.018;-0.037;96.0;-10.6;14.7;-50.4;35.8;-1.3;0.7;0.0;1022.4;65.4;47.60191;-122.27638;-58.1;NaN;;6.2;9.67742;65.2;11 / 15;326007;2015-07-28 17:34:47:799
-0.684;0.211;9.271;-0.827;0.208;9.77;0.178;0.025;-0.122;-0.022;0.107;0.004;94.0;-8.9;14.2;-51.0;39.8;-1.4;4.2;0.0;1022.4;67.93;47.60192;-122.27636;-54.8;NaN;;6.5;9.67742;69.7;11 / 14;327007;2015-07-28 17:34:48:799
-1.596;0.288;9.091;-1.448;0.157;9.698;-0.166;0.086;-0.26;0.05;0.013;-0.038;133.0;-4.2;14.6;-51.5;36.3;-0.9;8.5;0.0;1022.5;57.16;47.60193;-122.27634;-54.8;NaN;;6.4;9.67742;70.3;11 / 15;328007;2015-07-28 17:34:49:799
-1.726;0.23;9.619;-1.489;0.168;9.691;-0.114;0.075;-0.065;0.024;0.039;-0.059;123.0;-4.3;13.9;-51.7;38.6;-1.0;8.7;0.0;1022.5;64.89;47.60193;-122.27631;-54.8;NaN;;6.5;9.67742;70.1;11 / 15;329007;2015-07-28 17:34:50:799
-1.531;0.134;9.697;-1.849;0.16;9.629;0.256;-0.04;0.472;0.013;0.079;-0.025;108.0;-4.0;13.3;-50.9;44.2;-1.0;10.8;0.0;1022.5;58.67;47.60194;-122.27629;-51.6;NaN;;6.3;9.67742;77.3;10 / 13;330007;2015-07-28 17:34:51:799
-3.087;0.249;8.758;-2.487;0.108;9.485;-0.581;0.152;-0.67;-0.1;0.018;-0.029;71.0;0.8;12.1;-51.7;43.2;-1.0;14.5;0.0;1022.4;60.87;47.60195;-122.27626;-51.6;NaN;;6.9;9.67742;75.0;11 / 15;331007;2015-07-28 17:34:52:799
-2.787;0.293;8.581;-2.783;0.288;9.399;0.101;0.02;-0.748;-0.01;-0.01;-0.002;94.0;1.8;13.4;-51.7;41.9;-1.5;16.5;0.0;1022.4;66.57;47.60195;-122.27623;-54.8;NaN;;7.8;9.67742;84.8;12 / 15;332006;2015-07-28 17:34:53:798
-2.91;0.196;8.926;-2.814;0.238;9.391;-0.105;-0.006;-0.15;-0.034;-0.061;0.069;221.0;0.6;13.1;-52.4;44.7;-1.5;16.9;0.0;1022.5;65.26;47.60196;-122.2762;-54.8;NaN;;7.8;9.67742;82.4;9 / 12;333006;2015-07-28 17:34:54:798
-2.478;0.181;9.016;-2.411;0.172;9.504;-0.082;0.014;-0.298;-0.017;0.015;-0.03;147.0;0.0;13.2;-51.6;41.5;-1.3;13.9;0.0;1022.5;61.06;47.60196;-122.27618;-58.1;NaN;;8.4;9.67742;62.8;12 / 15;334007;2015-07-28 17:34:55:799
-2.794;0.056;9.596;-2.796;0.07;9.399;0.107;-0.04;0.244;0.014;0.045;-0.002;185.0;1.4;14.5;-51.4;43.4;-0.4;16.6;0.0;1022.5;71.54;47.60197;-122.27616;-54.8;NaN;;8.2;9.67742;65.9;12 / 15;335007;2015-07-28 17:34:56:799
-3.319;0.076;8.997;-3.147;0.015;9.288;-0.139;0.115;-0.325;-0.096;0.016;-0.032;303.0;3.6;14.0;-51.3;39.6;-0.8;18.2;0.0;1022.4;60.67;47.60198;-122.27613;-54.8;NaN;;8.4;9.67742;74.7;11 / 14;336007;2015-07-28 17:34:57:799
-3.411;0.116;8.544;-3.467;0.181;9.172;-0.029;-0.053;-0.488;0.025;0.035;0.021;1701.0;5.4;14.9;-50.9;39.4;-1.0;20.3;0.0;1022.4;61.22;47.60198;-122.2761;-54.8;NaN;;8.6;9.67742;78.5;12 / 15;337006;2015-07-28 17:34:58:798
-4.002;0.0;9.061;-3.731;-0.118;9.068;-0.352;0.12;0.177;-0.05;0.011;-0.031;4539.0;6.9;15.2;-50.7;41.2;0.5;22.1;0.0;1022.4;62.98;47.60199;-122.27608;-54.8;NaN;;8.9;9.67742;72.3;10 / 13;338006;2015-07-28 17:34:59:798
-3.829;0.019;8.353;-3.954;0.18;8.973;0.066;-0.122;-0.365;-0.026;0.04;0.042;2009.0;8.3;14.5;-50.7;41.1;-1.1;23.6;0.0;1022.4;62.02;47.602;-122.27605;-54.8;NaN;;9.1;9.67742;69.2;12 / 15;339007;2015-07-28 17:35:00:799
-4.067;-0.076;9.374;-4.093;-0.137;8.911;-0.16;0.042;0.431;-0.023;-0.021;0.058;2138.0;9.6;16.1;-50.0;37.6;0.8;24.7;0.0;1022.5;65.48;47.602;-122.27601;-58.1;NaN;;9.3;9.67742;69.5;11 / 14;340007;2015-07-28 17:35:01:799
-4.178;-0.007;9.565;-3.829;-0.058;9.028;-0.453;0.038;0.457;0.015;-0.018;0.028;2272.0;8.5;16.5;-49.7;35.8;0.4;23.0;0.0;1022.5;71.99;47.60201;-122.27598;-58.1;NaN;;8.9;9.67742;70.1;10 / 14;341007;2015-07-28 17:35:02:799
-3.733;0.019;8.895;-3.595;-0.174;9.122;-0.148;0.185;0.24;-0.092;-0.007;-0.016;2251.0;7.3;16.3;-50.5;36.9;0.6;21.3;0.0;1022.5;70.62;47.60202;-122.27595;-54.8;NaN;;9.0;9.67742;66.9;12 / 15;342012;2015-07-28 17:35:03:804
-3.006;0.079;8.232;-3.318;0.039;9.228;0.354;-0.03;-0.843;0.03;-0.028;-0.046;2353.0;7.3;16.0;-50.4;32.9;-0.3;20.0;0.0;1022.4;57.5;47.60203;-122.27592;-54.8;NaN;;9.5;9.67742;63.5;9 / 12;343007;2015-07-28 17:35:04:799
-3.485;0.0;9.71;-3.611;-0.014;9.118;0.088;-0.043;0.927;0.055;0.04;-0.009;870.0;6.8;16.5;-50.6;35.9;0.1;21.6;0.0;1022.5;62.89;47.60204;-122.27589;-54.8;NaN;;9.7;9.67742;69.9;11 / 14;344007;2015-07-28 17:35:05:799
-4.253;-0.087;9.196;-3.905;-0.007;8.995;-0.218;-0.022;0.148;-0.058;0.052;0.011;2183.0;8.3;15.2;-50.6;40.9;0.0;23.5;0.0;1022.5;69.04;47.60204;-122.27586;-54.8;NaN;;9.8;9.67742;76.3;12 / 15;345009;2015-07-28 17:35:06:801
-4.019;-0.021;8.376;-4.014;-0.018;8.948;-0.05;-0.035;-0.347;-0.045;-0.044;-0.017;2150.0;10.4;15.6;-49.9;35.5;0.1;24.2;0.0;1022.5;67.92;47.60206;-122.27582;-54.8;NaN;;9.5;9.67742;65.7;12 / 15;346006;2015-07-28 17:35:07:798
-4.081;-0.034;8.832;-3.958;-0.032;8.973;-0.187;0.003;-0.003;0.024;0.001;0.05;2074.0;8.9;17.3;-50.2;35.3;0.3;23.7;0.0;1022.5;58.58;47.60207;-122.27579;-54.8;NaN;;9.3;9.67742;62.9;11 / 15;347007;2015-07-28 17:35:08:799
-3.498;0.058;8.102;-3.504;0.029;9.159;0.092;0.063;-0.878;-0.046;-0.061;-0.049;2175.0;8.9;15.2;-50.5;32.2;-0.4;21.1;0.0;1022.4;61.68;47.60207;-122.27575;-58.1;NaN;;9.8;9.67742;67.3;12 / 16;348007;2015-07-28 17:35:09:799
-3.198;-0.02;9.407;-3.341;0.114;9.219;0.101;-0.166;0.201;0.064;-0.042;0.016;2007.0;6.8;16.0;-51.0;34.6;-0.4;20.4;0.0;1022.5;63.74;47.60208;-122.27572;-58.1;NaN;;9.8;9.67742;64.4;11 / 15;349007;2015-07-28 17:35:10:799
-3.446;0.016;9.719;-3.204;-0.108;9.268;-0.395;0.095;0.595;-0.05;-0.001;0.012;150.0;5.0;15.6;-51.0;37.4;0.4;19.0;0.0;1022.5;65.33;47.60209;-122.27568;-58.1;NaN;;9.6;9.67742;64.6;12 / 15;350007;2015-07-28 17:35:11:799
-2.644;0.162;8.463;-2.867;0.066;9.378;0.186;0.093;-0.776;-0.022;-0.009;-0.055;132.0;4.7;15.5;-51.3;33.4;-0.4;17.0;0.0;1022.5;68.82;47.6021;-122.27565;-58.1;NaN;;9.4;9.67742;64.1;11 / 15;351007;2015-07-28 17:35:12:799
-3.045;0.001;9.791;-3.312;0.189;9.228;0.226;-0.179;0.751;0.13;0.02;0.013;72.0;5.2;16.6;-50.4;35.1;-0.8;20.0;0.0;1022.5;71.18;47.60211;-122.27563;-61.3;NaN;;9.9;9.67742;69.1;12 / 16;352007;2015-07-28 17:35:13:799
-3.91;-0.076;9.543;-3.488;-0.028;9.165;-0.493;-0.011;0.577;-0.066;0.02;0.011;69.0;5.4;14.3;-51.2;44.2;0.2;20.8;0.0;1022.5;63.69;47.60212;-122.27559;-61.3;NaN;;9.5;9.67742;66.6;11 / 15;353006;2015-07-28 17:35:14:798
-3.559;0.009;9.033;-3.409;0.001;9.195;-0.09;0.028;-0.051;-0.003;0.013;0.011;57.0;6.3;15.4;-50.7;38.7;0.0;20.2;0.0;1022.5;66.38;47.60213;-122.27556;-61.3;NaN;;9.3;9.67742;67.0;12 / 16;354007;2015-07-28 17:35:15:799
-3.791;-0.076;9.442;-3.837;-0.009;9.025;0.012;-0.077;0.515;-0.01;0.063;0.052;180.0;7.9;16.3;-49.9;37.2;0.2;22.8;0.0;1022.5;71.32;47.60214;-122.27553;-61.3;NaN;;9.6;9.67742;67.1;11 / 15;355007;2015-07-28 17:35:16:799
-4.113;0.015;8.888;-3.949;-0.045;8.976;-0.163;0.02;-0.002;-0.033;-0.005;0.018;119.0;9.3;16.6;-49.8;34.8;0.2;23.5;0.0;1022.4;69.38;47.60214;-122.2755;-61.3;NaN;;9.6;9.67742;67.0;11 / 15;356006;2015-07-28 17:35:17:798
-3.812;-0.038;9.511;-3.772;-0.042;9.052;-0.053;-0.001;0.46;-0.017;-0.025;0.03;718.0;9.0;16.7;-49.8;34.0;0.3;23.0;0.0;1022.5;64.94;47.60215;-122.27546;-61.3;NaN;;9.7;9.67742;66.4;12 / 16;357007;2015-07-28 17:35:18:799
-3.236;-0.042;8.845;-3.403;0.048;9.197;0.038;-0.027;-0.233;-0.007;-0.03;0.043;31.0;6.9;17.1;-50.4;32.0;-0.3;20.3;0.0;1022.4;64.45;47.60217;-122.27544;-61.3;NaN;;9.3;9.67742;62.7;10 / 12;358007;2015-07-28 17:35:19:799
-2.695;0.067;8.542;-3.099;0.063;9.304;0.404;0.024;-0.745;0.007;-0.018;-0.027;53.0;6.8;16.6;-50.4;29.4;-0.2;19.0;0.0;1022.5;67.33;47.60218;-122.27541;-61.3;NaN;;9.6;9.67742;60.2;10 / 15;359007;2015-07-28 17:35:20:799
-3.005;-0.019;9.309;-3.343;0.047;9.219;0.377;-0.08;0.074;0.039;0.031;0.024;42.0;7.0;17.2;-50.2;31.8;-0.2;20.1;0.0;1022.5;59.79;47.60219;-122.27538;-58.1;NaN;;9.8;9.67742;58.9;12 / 15;360007;2015-07-28 17:35:21:799
-3.394;-0.048;8.802;-3.383;-0.149;9.203;-0.057;0.099;-0.246;-0.059;0.012;-0.051;29.0;8.6;17.1;-49.9;27.9;0.7;20.0;0.0;1022.4;68.81;47.6022;-122.27534;-58.1;NaN;;9.4;9.67742;58.0;9 / 12;361007;2015-07-28 17:35:22:799
-3.573;-0.027;8.995;-3.558;-0.021;9.138;0.108;0.049;-0.224;0.022;0.011;-0.058;69.0;9.0;17.1;-49.6;30.0;0.1;21.3;0.0;1022.4;69.33;47.60221;-122.27531;-58.1;NaN;;9.4;9.67742;64.8;11 / 16;362007;2015-07-28 17:35:23:799
-3.638;-0.089;9.456;-3.668;-0.049;9.095;-0.016;-0.027;0.366;-0.018;-0.014;0.011;102.0;8.0;17.0;-50.1;34.3;0.3;22.1;0.0;1022.5;71.1;47.60222;-122.27528;-58.1;NaN;;9.6;9.67742;64.1;12 / 16;363007;2015-07-28 17:35:24:799
-3.62;-0.057;9.523;-3.478;0.078;9.169;-0.196;-0.075;0.163;-0.047;-0.015;-0.019;40.0;7.8;15.8;-50.1;32.0;-0.5;20.8;0.0;1022.5;69.13;47.60223;-122.27525;-58.1;NaN;;9.8;9.67742;60.1;12 / 16;364007;2015-07-28 17:35:25:799
-3.186;-0.019;9.455;-3.27;-0.087;9.245;-0.076;0.057;0.008;-0.042;-0.033;-0.008;46.0;5.7;15.9;-50.3;35.1;0.4;19.5;0.0;1022.5;63.02;47.60224;-122.27522;-54.8;NaN;;9.7;9.67742;63.9;12 / 16;365007;2015-07-28 17:35:26:799
-3.263;0.047;8.962;-3.103;0.175;9.301;-0.254;-0.074;-0.116;-0.047;-0.031;0.03;28.0;5.2;15.9;-50.6;33.5;-1.2;18.3;0.0;1022.4;66.18;47.60225;-122.27518;-54.8;NaN;;9.9;9.67742;63.3;12 / 16;366007;2015-07-28 17:35:27:799
-3.128;0.0;8.467;-3.035;0.037;9.325;-0.196;-0.036;-0.49;-0.08;0.007;0.018;34.0;4.7;16.3;-50.5;33.3;-0.5;17.8;0.0;1022.4;69.08;47.60226;-122.27515;-51.6;NaN;;10.0;9.67742;67.1;11 / 15;367007;2015-07-28 17:35:28:799
-2.933;0.039;8.378;-3.123;0.085;9.296;0.231;-0.028;-0.89;0.002;-0.026;0.019;33.0;6.3;17.2;-50.0;30.9;-0.3;18.7;0.0;1022.4;71.4;47.60226;-122.27511;-58.1;NaN;;10.2;9.67742;68.0;11 / 15;368007;2015-07-28 17:35:29:799
-2.59;0.23;9.046;-2.883;0.114;9.373;0.182;0.049;-0.063;0.026;-0.057;0.015;23.0;5.0;17.2;-50.6;30.2;-0.7;17.1;0.0;1022.5;67.33;47.60228;-122.27508;-54.8;NaN;;10.1;9.67742;62.7;9 / 14;369007;2015-07-28 17:35:30:799
-2.074;-0.015;9.819;-2.346;0.076;9.522;0.334;-0.087;0.121;0.058;-0.042;0.042;31.0;2.9;17.6;-50.1;28.1;0.0;14.5;0.0;1022.5;68.75;47.60229;-122.27504;-54.8;NaN;;10.0;9.67742;61.4;11 / 15;370007;2015-07-28 17:35:31:799
-2.313;-0.069;10.083;-2.352;-0.312;9.515;0.089;0.174;0.801;-0.079;0.026;-0.049;47.0;1.9;17.5;-50.4;32.0;1.3;13.7;0.0;1022.5;65.21;47.6023;-122.27501;-54.8;NaN;;9.8;9.67742;57.9;12 / 16;371007;2015-07-28 17:35:32:799
-2.661;0.118;9.102;-2.624;0.18;9.447;-0.089;-0.043;-0.154;0.051;0.041;0.004;64.0;2.8;17.1;-50.3;29.6;-0.7;14.9;0.0;1022.5;65.08;47.60231;-122.27498;-51.6;NaN;;9.8;9.67742;60.3;11 / 15;372007;2015-07-28 17:35:33:799
-3.407;-0.075;9.941;-3.167;-0.066;9.281;-0.27;-0.013;0.901;-0.048;0.058;0.031;59.0;6.2;17.0;-50.4;32.1;0.4;18.8;0.0;1022.5;62.95;47.60233;-122.27496;-51.6;NaN;;9.7;9.67742;60.8;13 / 16;373007;2015-07-28 17:35:34:799
-2.821;-0.006;8.703;-3.072;-0.116;9.312;0.096;0.095;-0.243;-0.013;-0.027;-0.02;45.0;6.7;18.1;-50.2;27.6;0.7;18.4;0.0;1022.5;66.49;47.60234;-122.27493;-48.4;NaN;;9.6;9.67742;62.4;10 / 13;374007;2015-07-28 17:35:35:799
-2.405;0.051;8.829;-2.851;0.146;9.382;0.472;-0.114;-0.61;0.065;-0.001;-0.001;56.0;5.0;17.7;-50.0;27.5;-0.9;16.9;0.0;1022.5;59.28;47.60236;-122.2749;-48.4;NaN;;10.3;9.67742;59.9;11 / 15;375007;2015-07-28 17:35:36:799
-3.014;0.0;8.961;-3.062;-0.047;9.316;0.15;0.023;-0.266;0.009;0.018;-0.042;63.0;6.3;17.1;-50.3;30.6;0.3;18.2;0.0;1022.5;63.52;47.60237;-122.27486;-51.6;NaN;;9.8;9.67742;62.6;12 / 15;376007;2015-07-28 17:35:37:799
-2.353;0.075;8.705;-2.754;0.03;9.412;0.408;-0.112;-0.004;0.072;-0.025;-0.083;71.0;5.5;16.9;-50.6;30.0;-0.1;16.7;0.0;1022.5;61.12;47.60238;-122.27483;-51.6;NaN;;10.0;9.67742;60.0;11 / 15;377007;2015-07-28 17:35:38:799
-3.159;-0.019;9.821;-3.038;-0.188;9.322;-0.129;0.148;0.618;0.081;0.065;-0.026;96.0;5.2;16.6;-50.9;34.9;1.9;17.7;0.0;1022.5;60.96;47.60239;-122.2748;-51.6;NaN;;9.4;9.67742;70.7;13 / 16;378007;2015-07-28 17:35:39:799
-3.69;-0.136;9.113;-3.708;-0.067;9.078;-0.032;-0.077;0.06;0.003;0.068;0.016;100.0;7.2;14.9;-51.0;40.0;0.4;21.6;0.0;1022.5;60.99;47.6024;-122.27477;-51.6;NaN;;10.2;9.67742;70.0;12 / 15;379007;2015-07-28 17:35:40:799
-4.332;-0.172;9.242;-4.157;-0.084;8.882;-0.124;-0.092;0.266;0.025;-0.006;0.036;70.0;9.6;16.4;-50.0;38.1;0.6;25.1;0.0;1022.5;62.19;47.60241;-122.27473;-51.6;NaN;;10.4;9.67742;65.4;13 / 15;380007;2015-07-28 17:35:41:799
-4.272;-0.172;9.399;-3.899;-0.251;8.995;-0.315;0.107;0.162;-0.052;-0.035;-0.032;24.0;9.0;16.2;-50.0;38.4;1.4;23.5;0.0;1022.5;59.96;47.60241;-122.27469;-51.6;NaN;;10.6;9.67742;73.0;10 / 13;381008;2015-07-28 17:35:42:800
-3.195;-0.019;9.252;-3.415;0.032;9.193;0.197;-0.079;0.173;0.029;-0.022;-0.01;28.0;5.9;15.0;-51.1;38.7;-0.2;20.4;0.0;1022.5;62.24;47.60242;-122.27466;-51.6;NaN;;10.7;9.67742;69.1;12 / 16;382007;2015-07-28 17:35:43:799
-3.205;-0.107;9.585;-3.282;-0.076;9.241;0.053;-0.066;0.344;-0.021;0.001;0.02;28.0;5.1;14.9;-51.1;40.7;0.4;19.9;0.0;1022.4;65.93;47.60243;-122.27462;-51.6;NaN;;11.2;9.67742;69.2;11 / 15;383008;2015-07-28 17:35:44:800
-2.872;-0.086;9.328;-2.941;-0.138;9.354;-0.065;0.027;0.063;-0.012;-0.036;-0.029;89.0;3.6;15.3;-50.9;38.8;0.8;17.5;0.0;1022.5;62.19;47.60244;-122.27458;-51.6;NaN;;10.1;9.67742;67.5;11 / 15;384007;2015-07-28 17:35:45:799
-2.659;-0.076;9.347;-2.741;0.062;9.416;0.094;-0.084;0.026;0.002;-0.012;0.002;80.0;2.3;13.5;-51.4;42.9;-0.5;16.4;0.0;1022.4;63.07;47.60245;-122.27455;-48.4;NaN;;10.4;9.67742;69.7;12 / 16;385008;2015-07-28 17:35:46:800
-2.719;-0.057;9.541;-2.74;-0.152;9.415;0.023;0.126;0.123;-0.024;0.0;0.015;91.0;1.7;15.5;-51.0;39.3;1.0;16.3;0.0;1022.5;68.02;47.60245;-122.27451;-48.4;NaN;;10.1;9.67742;74.5;13 / 15;386008;2015-07-28 17:35:47:800
-3.136;-0.153;9.719;-3.15;-0.004;9.287;-0.041;-0.14;0.508;0.04;0.033;0.061;95.0;3.5;16.0;-50.6;38.3;0.1;18.7;0.0;1022.5;58.35;47.60246;-122.27447;-48.4;NaN;;10.5;9.67742;71.9;14 / 16;387007;2015-07-28 17:35:48:799
-3.179;-0.325;9.512;-3.119;-0.26;9.294;-0.187;-0.029;0.256;-0.071;-0.013;-0.026;94.0;4.8;15.7;-50.8;36.1;0.5;18.4;0.0;1022.4;61.27;47.60247;-122.27443;-48.4;NaN;;11.0;9.67742;69.7;10 / 12;388007;2015-07-28 17:35:49:799
-2.47;0.019;9.017;-2.523;-0.033;9.476;0.009;0.061;-0.452;0.007;-0.088;-0.025;83.0;1.5;15.0;-51.5;37.0;0.2;14.9;0.0;1022.4;62.71;47.60248;-122.2744;-48.4;NaN;;10.3;9.67742;69.7;10 / 14;389008;2015-07-28 17:35:50:800
-2.336;-0.019;9.386;-2.209;0.033;9.555;-0.1;-0.056;-0.027;0.004;-0.001;0.006;80.0;-0.9;14.9;-51.5;39.7;-0.2;12.9;0.0;1022.5;58.67;47.60249;-122.27435;-48.4;NaN;;10.5;9.67742;67.1;15 / 16;390007;2015-07-28 17:35:51:799
-2.144;-0.076;9.683;-2.093;-0.179;9.579;-0.157;0.089;0.263;-0.035;-0.007;-0.032;82.0;-1.3;15.3;-51.4;40.1;1.0;12.3;0.0;1022.4;58.1;47.6025;-122.27431;-48.4;NaN;;10.4;9.67742;68.5;13 / 15;391007;2015-07-28 17:35:52:799
-2.003;0.13;8.249;-2.03;-0.109;9.594;-0.02;0.232;-1.173;-0.052;0.011;-0.038;77.0;-2.1;14.1;-51.5;42.0;0.1;11.8;0.0;1022.4;55.76;47.60251;-122.27428;-48.4;NaN;;10.0;9.67742;72.9;14 / 15;392007;2015-07-28 17:35:53:799
-2.198;0.134;8.429;-2.408;0.082;9.506;0.334;-0.015;-0.617;0.068;0.054;-0.028;77.0;0.9;13.8;-51.3;38.7;-0.5;14.2;0.0;1022.4;55.34;47.60253;-122.27425;-51.6;NaN;;10.4;9.67742;70.3;15 / 16;393007;2015-07-28 17:35:54:799
-3.294;-0.153;9.615;-3.287;-0.104;9.239;-0.016;-0.034;0.276;0.012;0.073;0.08;99.0;4.5;15.1;-50.7;40.1;0.9;19.1;0.0;1022.5;61.1;47.60253;-122.27421;-51.6;NaN;;10.2;9.67742;75.4;13 / 14;394007;2015-07-28 17:35:55:799
-3.905;-0.172;8.562;-3.872;-0.156;9.009;-0.086;-0.009;-0.256;-0.054;0.027;0.053;102.0;7.0;15.7;-50.6;40.4;0.7;22.6;0.0;1022.4;56.66;47.60254;-122.27418;-51.6;NaN;;10.2;9.67742;70.5;14 / 15;395007;2015-07-28 17:35:56:799
-3.754;-0.238;8.839;-4.005;-0.074;8.951;0.267;-0.17;-0.043;0.026;0.003;0.033;89.0;10.0;16.8;-49.7;34.5;0.5;24.2;0.0;1022.5;59.76;47.60254;-122.27413;-51.6;NaN;;10.6;9.67742;66.5;13 / 15;396007;2015-07-28 17:35:57:799
-4.069;-0.21;9.233;-3.949;-0.275;8.972;-0.235;0.094;0.243;-0.037;-0.026;0.01;101.0;9.1;16.8;-50.2;37.1;1.5;23.7;0.0;1022.5;62.09;47.60255;-122.2741;-54.8;NaN;;9.8;9.67742;66.4;13 / 15;397007;2015-07-28 17:35:58:799
-3.346;-0.081;8.147;-3.654;-0.071;9.1;0.329;-0.005;-1.018;-0.067;-0.002;0.0;83.0;8.7;17.4;-49.7;31.7;0.4;21.9;0.0;1022.4;63.59;47.60255;-122.27406;-54.8;NaN;;9.6;9.67742;67.2;13 / 16;398008;2015-07-28 17:35:59:800
-3.408;-0.022;9.066;-3.499;-0.004;9.161;0.086;-0.048;-0.106;0.065;-0.056;0.027;71.0;8.3;17.9;-49.6;31.6;0.4;21.5;0.0;1022.5;62.61;47.60257;-122.27403;-51.6;NaN;;9.5;9.67742;64.4;14 / 16;399007;2015-07-28 17:36:00:799
-3.102;-0.076;9.579;-3.237;-0.16;9.256;-0.019;0.08;0.305;-0.041;0.001;-0.013;77.0;5.8;17.5;-50.0;33.8;0.9;19.3;0.0;1022.5;62.99;47.60258;-122.274;-51.6;NaN;;10.0;9.67742;64.0;13 / 15;400008;2015-07-28 17:36:01:800
-2.864;-0.061;8.845;-2.963;0.09;9.348;-0.065;-0.061;-0.264;0.042;-0.041;-0.035;70.0;6.0;16.4;-50.6;30.5;-0.5;17.6;0.0;1022.5;63.26;47.60259;-122.27397;-51.6;NaN;;9.9;9.67742;59.9;13 / 15;401007;2015-07-28 17:36:02:799
-2.699;0.003;10.051;-2.71;0.051;9.425;-0.046;-0.026;0.556;0.035;-0.012;-0.007;81.0;3.7;16.2;-51.0;32.2;-0.3;16.0;0.0;1022.5;60.01;47.60261;-122.27394;-54.8;NaN;;9.7;9.67742;65.9;14 / 15;402007;2015-07-28 17:36:03:799
-2.891;0.127;9.077;-2.678;0.062;9.434;-0.196;0.094;-0.389;-0.068;0.04;0.001;80.0;2.7;15.0;-51.3;34.7;-0.5;15.5;0.0;1022.4;63.42;47.60262;-122.2739;-51.6;NaN;;10.1;9.67742;64.9;14 / 16;403007;2015-07-28 17:36:04:799
-2.738;0.173;8.543;-2.785;0.135;9.402;0.056;0.038;-0.677;-0.017;-0.027;-0.044;76.0;4.0;14.9;-51.3;34.2;-0.8;16.5;0.0;1022.5;59.9;47.60263;-122.27387;-54.8;NaN;;10.0;9.67742;71.4;12 / 15;404007;2015-07-28 17:36:05:799
-3.032;-0.012;9.414;-2.96;0.029;9.349;-0.183;0.005;0.061;0.008;0.016;0.005;92.0;3.3;16.2;-50.6;37.8;-0.2;17.6;0.0;1022.5;59.45;47.60263;-122.27383;-51.6;NaN;;9.6;9.67742;70.8;14 / 15;405008;2015-07-28 17:36:06:800
-3.481;0.18;8.39;-3.075;0.052;9.312;-0.043;0.116;-1.277;-0.083;0.028;-0.039;84.0;4.7;14.3;-51.7;37.0;-1.1;18.0;0.0;1022.4;60.23;47.60264;-122.2738;-51.6;NaN;;10.2;9.67742;64.6;12 / 14;406007;2015-07-28 17:36:07:799
-2.795;0.112;8.086;-3.065;0.222;9.313;0.334;-0.094;-1.136;0.04;-0.036;0.022;75.0;5.5;15.1;-51.0;34.8;-1.3;18.2;0.0;1022.4;58.33;47.60265;-122.27377;-51.6;NaN;;10.0;9.67742;68.0;14 / 16;407007;2015-07-28 17:36:08:799
-3.14;0.0;9.456;-3.367;0.013;9.211;0.095;-0.089;0.371;0.001;0.037;0.037;79.0;6.4;15.7;-50.4;35.7;-0.1;20.1;0.0;1022.5;62.44;47.60266;-122.27373;-51.6;NaN;;10.0;9.67742;73.1;11 / 12;408008;2015-07-28 17:36:09:800
-3.611;-0.142;9.777;-3.528;-0.096;9.149;-0.081;-0.047;0.625;0.047;-0.012;0.045;95.0;7.0;17.2;-50.2;35.3;0.7;21.2;0.0;1022.5;62.82;47.60267;-122.2737;-54.8;NaN;;9.7;9.67742;70.1;14 / 16;409007;2015-07-28 17:36:10:799
-3.644;-0.167;10.151;-3.207;-0.047;9.267;-0.811;0.19;0.034;-0.08;-0.023;-0.01;77.0;5.6;15.7;-51.1;34.5;0.0;19.1;0.0;1022.4;68.7;47.60268;-122.27367;-54.8;NaN;;10.0;9.67742;62.5;14 / 16;410007;2015-07-28 17:36:11:799
-2.981;0.082;8.264;-3.004;0.188;9.333;0.144;-0.082;-1.317;-0.068;0.016;0.008;68.0;4.9;15.0;-50.6;34.3;-1.1;17.8;0.0;1022.4;66.24;47.60269;-122.27363;-54.8;NaN;;10.3;9.67742;61.5;14 / 16;411007;2015-07-28 17:36:12:799
-3.181;0.039;9.329;-3.328;0.044;9.225;0.231;-0.006;-0.061;0.026;0.006;0.035;67.0;7.5;17.0;-49.8;29.6;0.0;20.1;0.0;1022.5;62.11;47.6027;-122.2736;-58.1;NaN;;9.8;9.67742;65.3;12 / 13;412006;2015-07-28 17:36:13:798
-3.197;0.077;9.066;-3.268;0.018;9.246;-0.057;0.06;0.155;-0.034;-0.014;0.024;61.0;6.5;16.7;-50.1;32.8;-0.1;19.5;0.0;1022.5;59.97;47.60271;-122.27357;-58.1;NaN;;9.7;9.67742;65.9;13 / 15;413007;2015-07-28 17:36:14:799
-2.776;0.134;8.447;-2.958;0.1;9.349;0.21;0.039;-0.794;0.006;-0.018;0.01;60.0;6.1;17.4;-50.2;28.1;-0.6;17.6;0.0;1022.4;62.68;47.60272;-122.27353;-58.1;NaN;;9.9;9.67742;58.7;13 / 15;414007;2015-07-28 17:36:15:799
-2.934;-0.014;9.592;-2.978;0.005;9.344;0.038;-0.071;0.32;0.013;-0.005;-0.001;48.0;6.4;18.2;-49.7;28.3;0.0;18.0;0.0;1022.5;60.52;47.60274;-122.27351;-58.1;NaN;;9.6;9.67742;60.4;13 / 15;415008;2015-07-28 17:36:16:800
-2.843;0.038;9.586;-2.761;-0.014;9.41;-0.14;0.066;0.348;0.0;-0.008;-0.032;64.0;4.6;17.3;-50.4;28.7;0.1;16.4;0.0;1022.5;61.97;47.60275;-122.27348;-61.3;NaN;;9.6;9.67742;59.3;12 / 15;416007;2015-07-28 17:36:17:799
-2.68;0.14;9.031;-2.74;0.07;9.416;0.002;0.07;-0.223;-0.027;0.014;-0.037;69.0;3.9;16.6;-50.7;30.6;-0.5;16.1;0.0;1022.5;67.89;47.60277;-122.27345;-58.1;NaN;;10.0;9.67742;58.9;13 / 16;417008;2015-07-28 17:36:18:800
-3.37;0.053;9.065;-3.22;0.104;9.262;-0.108;-0.055;-0.065;0.031;0.041;0.024;72.0;5.9;16.9;-50.8;32.3;-0.6;19.2;0.0;1022.4;65.38;47.60278;-122.27342;-58.1;NaN;;10.3;9.67742;65.9;12 / 15;418008;2015-07-28 17:36:19:800
-3.646;0.027;8.978;-3.603;0.074;9.121;-0.181;-0.019;0.071;-0.059;0.019;0.029;56.0;8.5;15.5;-50.4;32.3;-0.8;21.2;0.0;1022.4;65.34;47.60279;-122.27339;-58.1;NaN;;10.5;9.67742;59.5;14 / 15;419007;2015-07-28 17:36:20:799
-3.319;0.019;8.722;-3.527;-0.035;9.15;0.134;0.049;-0.316;-0.015;-0.006;0.017;50.0;8.3;16.9;-50.0;32.0;0.2;21.1;0.0;1022.4;64.24;47.60279;-122.27335;-58.1;NaN;;10.0;9.67742;60.6;13 / 14;420008;2015-07-28 17:36:21:800
-3.312;-0.017;9.651;-3.41;-0.043;9.195;0.07;0.02;0.451;0.024;-0.012;-0.004;49.0;8.1;17.9;-49.4;29.4;0.5;20.8;0.0;1022.5;64.94;47.60281;-122.27332;-61.3;NaN;;10.0;9.67742;59.4;13 / 15;421007;2015-07-28 17:36:22:799
-3.466;-0.046;9.658;-3.438;-0.041;9.184;-0.174;0.007;0.576;-0.016;0.032;0.012;66.0;7.1;17.8;-50.3;31.3;0.3;20.3;0.0;1022.5;69.13;47.60282;-122.27329;-58.1;NaN;;9.8;9.67742;64.0;14 / 15;422008;2015-07-28 17:36:23:800
-3.378;-0.093;9.213;-3.419;0.01;9.191;-0.104;-0.072;0.194;-0.017;-0.002;0.009;50.0;8.3;17.0;-50.2;30.1;-0.2;20.4;0.0;1022.5;63.66;47.60283;-122.27326;-61.3;NaN;;10.0;9.67742;59.8;13 / 15;423010;2015-07-28 17:36:24:802
-3.215;0.021;9.323;-3.24;0.01;9.256;0.019;0.033;0.021;0.025;-0.019;-0.005;58.0;7.3;18.2;-49.7;29.1;0.1;19.4;0.0;1022.5;67.57;47.60285;-122.27323;-61.3;NaN;;9.8;9.67742;61.1;14 / 15;424008;2015-07-28 17:36:25:800
-3.472;0.04;9.013;-3.359;-0.021;9.213;-0.102;0.083;0.0;0.011;0.03;-0.015;65.0;7.4;17.3;-50.2;32.0;0.1;20.0;0.0;1022.4;60.31;47.60286;-122.2732;-61.3;NaN;;9.6;9.67742;62.5;14 / 15;425007;2015-07-28 17:36:26:799
-3.561;-0.035;8.25;-3.763;-0.008;9.056;0.188;-0.045;-0.378;-0.031;0.024;-0.02;56.0;9.5;16.9;-49.6;30.0;-0.1;22.5;0.0;1022.4;60.4;47.60287;-122.27316;-61.3;NaN;;10.1;9.67742;64.7;13 / 14;426007;2015-07-28 17:36:27:799
-3.642;-0.172;8.8;-3.817;-0.054;9.033;0.158;-0.133;-0.145;0.06;-0.035;0.026;51.0;10.6;18.4;-49.3;28.2;0.5;23.5;0.0;1022.5;60.52;47.60288;-122.27312;-61.3;NaN;;10.1;9.67742;64.1;13 / 15;427007;2015-07-28 17:36:28:799
-3.719;-0.031;9.045;-3.593;-0.043;9.124;-0.001;0.018;0.197;0.035;-0.039;0.025;54.0;8.7;17.9;-50.0;30.1;0.6;21.7;0.0;1022.4;57.38;47.60289;-122.27309;-61.3;NaN;;9.6;9.67742;60.4;13 / 16;428013;2015-07-28 17:36:29:805
-3.291;-0.076;9.139;-3.147;-0.119;9.287;-0.164;0.089;-0.061;-0.026;-0.055;-0.006;66.0;6.1;17.6;-50.1;30.8;0.7;18.7;0.0;1022.4;61.54;47.60291;-122.27306;-61.3;NaN;;10.0;9.67742;61.1;14 / 16;429007;2015-07-28 17:36:30:799
-2.505;0.007;7.991;-2.837;0.033;9.387;0.284;-0.032;-1.043;0.011;0.011;-0.051;61.0;5.2;16.8;-50.5;30.1;-0.2;16.8;0.0;1022.4;57.02;47.60292;-122.27302;-58.1;NaN;;10.2;9.67742;55.9;14 / 15;430007;2015-07-28 17:36:31:799
-2.618;0.173;7.628;-2.909;0.021;9.365;0.307;0.161;-1.337;-0.005;-0.019;-0.061;78.0;4.9;16.7;-50.5;31.2;-0.1;17.3;0.0;1022.4;58.48;47.60294;-122.273;-54.8;NaN;;9.9;9.67742;56.6;14 / 16;431007;2015-07-28 17:36:32:799
-3.274;-0.076;8.963;-3.463;-0.089;9.174;0.079;-0.011;0.167;0.029;0.032;-0.038;90.0;7.1;17.0;-50.4;33.9;0.6;20.6;0.0;1022.5;65.67;47.60295;-122.27296;-54.8;NaN;;10.2;9.67742;60.6;15 / 16;432007;2015-07-28 17:36:33:799
-3.828;-0.096;9.118;-3.926;-0.017;8.986;0.095;-0.091;0.156;0.031;0.034;0.017;92.0;9.2;16.2;-50.4;36.5;0.1;23.6;0.0;1022.4;61.14;47.60296;-122.27292;-54.8;NaN;;10.4;9.67742;73.9;14 / 15;433006;2015-07-28 17:36:34:798
-4.437;-0.21;8.921;-4.394;-0.146;8.766;-0.075;-0.061;0.256;-0.012;0.06;0.067;89.0;11.3;16.9;-49.5;36.7;0.9;26.6;0.0;1022.4;58.85;47.60297;-122.27289;-54.8;NaN;;10.1;9.67742;69.9;15 / 16;434007;2015-07-28 17:36:35:799
-4.423;-0.25;8.851;-4.551;-0.242;8.683;0.034;0.0;0.192;-0.055;-0.015;0.047;50.0;13.4;17.7;-48.9;34.1;1.3;27.9;0.0;1022.4;64.4;47.60299;-122.27286;-54.8;NaN;;9.6;9.67742;66.7;13 / 14;435006;2015-07-28 17:36:36:798
-4.345;-0.172;8.985;-4.237;-0.129;8.843;-0.257;-0.006;-0.06;-0.018;-0.068;0.029;44.0;11.9;17.7;-49.0;30.8;0.8;25.6;0.0;1022.4;57.24;47.60299;-122.27282;-54.8;NaN;;10.1;9.67742;63.7;15 / 16;436010;2015-07-28 17:36:37:802
-3.37;-0.038;8.581;-3.527;-0.14;9.149;0.043;0.036;-0.209;-0.007;-0.044;-0.009;50.0;9.2;18.3;-49.7;29.0;0.8;21.1;0.0;1022.4;58.98;47.603;-122.27278;-54.8;NaN;;9.8;9.67742;57.2;14 / 15;437008;2015-07-28 17:36:38:800
-2.688;0.089;8.113;-3.13;0.216;9.291;0.38;-0.186;-0.531;0.052;-0.044;0.001;49.0;7.0;17.7;-50.4;26.0;-1.3;18.6;0.0;1022.4;62.11;47.60302;-122.27275;-54.8;NaN;;9.9;9.67742;60.1;13 / 15;438007;2015-07-28 17:36:39:799
-2.96;-0.134;9.697;-3.112;-0.145;9.299;0.119;0.011;0.533;0.044;0.012;0.027;49.0;6.0;18.5;-50.2;31.1;1.0;18.7;0.0;1022.5;60.51;47.60303;-122.27272;-54.8;NaN;;9.9;9.67742;62.3;12 / 15;439007;2015-07-28 17:36:40:799
-3.389;-0.068;9.386;-3.263;-0.05;9.248;-0.142;-0.022;0.193;0.012;0.022;-0.004;49.0;7.3;17.9;-50.0;29.0;0.4;19.2;0.0;1022.4;63.21;47.60304;-122.27269;-51.6;NaN;;9.6;9.67742;58.7;9 / 13;440007;2015-07-28 17:36:41:799
-3.08;0.017;8.99;-3.314;0.093;9.229;0.249;-0.102;-0.093;0.041;0.014;0.046;42.0;7.2;17.6;-49.9;30.0;-0.4;20.0;0.0;1022.5;59.65;47.60305;-122.27266;-51.6;NaN;;9.8;9.67742;60.6;11 / 15;441007;2015-07-28 17:36:42:799
-3.083;-0.057;9.839;-3.124;-0.141;9.295;-0.221;0.052;0.833;0.012;-0.028;0.017;42.0;6.7;18.3;-49.9;28.3;0.8;18.6;0.0;1022.5;66.21;47.60307;-122.27264;-51.6;NaN;;9.7;9.67742;60.9;14 / 16;442007;2015-07-28 17:36:43:799
-2.642;0.046;9.524;-2.789;0.039;9.402;0.003;0.043;0.156;0.008;-0.008;-0.009;54.0;4.9;17.5;-50.1;28.7;-0.2;16.5;0.0;1022.4;61.92;47.60308;-122.27261;-51.6;NaN;;9.8;9.67742;59.1;14 / 16;443007;2015-07-28 17:36:44:799
-2.853;0.137;9.17;-2.786;0.102;9.402;-0.078;0.064;-0.074;-0.026;0.001;-0.003;56.0;5.0;17.2;-50.0;27.9;-0.6;16.3;0.0;1022.4;67.88;47.60309;-122.27257;-51.6;NaN;;9.4;9.67742;60.8;14 / 15;444007;2015-07-28 17:36:45:799
-2.682;0.058;8.677;-2.659;-0.016;9.439;-0.06;0.083;-0.546;-0.029;-0.007;-0.047;68.0;3.9;17.8;-50.1;28.1;0.0;15.6;0.0;1022.4;60.18;47.6031;-122.27254;-51.6;NaN;;9.8;9.67742;58.0;13 / 14;445008;2015-07-28 17:36:46:800
-2.565;0.077;8.905;-2.796;0.233;9.397;0.188;-0.14;-0.408;0.031;0.019;-0.018;63.0;4.2;17.0;-50.6;30.5;-1.3;16.5;0.0;1022.4;62.29;47.60311;-122.27251;-51.6;NaN;;9.7;9.67742;56.2;14 / 16;446007;2015-07-28 17:36:47:799
-3.326;0.085;8.923;-3.147;0.039;9.288;-0.259;0.049;-0.056;-0.085;0.021;-0.022;63.0;6.4;15.8;-50.5;32.6;-0.2;18.7;0.0;1022.4;59.66;47.60313;-122.27248;-51.6;NaN;;10.2;9.67742;60.7;14 / 16;447007;2015-07-28 17:36:48:799
-3.255;0.07;8.543;-3.121;0.102;9.296;-0.084;-0.025;-0.738;0.0;-0.02;0.008;62.0;7.5;17.1;-50.2;27.9;-0.7;18.6;0.0;1022.4;57.06;47.60314;-122.27244;-54.8;NaN;;9.9;9.67742;59.6;15 / 16;448007;2015-07-28 17:36:49:799
-3.249;0.019;9.257;-3.307;0.017;9.232;0.068;-0.007;0.163;0.008;0.01;0.014;52.0;6.9;17.0;-50.6;32.4;0.0;19.9;0.0;1022.4;57.82;47.60315;-122.27241;-54.8;NaN;;9.8;9.67742;61.6;14 / 15;449006;2015-07-28 17:36:50:798
-2.627;0.113;8.329;-2.983;0.122;9.341;0.259;-0.02;-0.668;0.028;-0.062;-0.005;51.0;6.2;16.8;-50.2;29.6;-0.7;18.3;0.0;1022.4;59.35;47.60316;-122.27238;-54.8;NaN;;9.8;9.67742;63.3;13 / 15;450007;2015-07-28 17:36:51:799
-2.701;0.153;9.112;-2.798;0.115;9.398;0.049;0.026;-0.114;0.059;-0.004;-0.011;59.0;4.8;16.7;-50.9;29.0;-0.7;16.6;0.0;1022.5;60.09;47.60317;-122.27235;-54.8;NaN;;9.8;9.67742;62.4;12 / 14;451007;2015-07-28 17:36:52:799
-2.825;-0.076;9.024;-2.905;-0.053;9.366;0.028;-0.02;-0.184;0.002;0.031;-0.03;49.0;4.7;17.5;-50.1;28.7;0.3;16.8;0.0;1022.4;61.66;47.60319;-122.27231;-51.6;NaN;;10.1;9.67742;59.7;14 / 15;452007;2015-07-28 17:36:53:799
-3.013;0.0;8.484;-3.203;0.117;9.268;0.081;-0.082;-0.329;0.023;0.026;-0.006;46.0;6.5;16.1;-50.8;33.5;-0.7;19.1;0.0;1022.4;62.82;47.60319;-122.27228;-51.6;NaN;;9.9;9.67742;62.9;15 / 15;453007;2015-07-28 17:36:54:799
-3.52;-0.077;10.014;-3.446;-0.113;9.18;-0.145;-0.004;0.996;0.046;0.004;0.045;72.0;7.0;17.4;-50.1;34.4;0.9;20.7;0.0;1022.5;61.14;47.60321;-122.27225;-54.8;NaN;;10.1;9.67742;63.8;15 / 15;454007;2015-07-28 17:36:55:799
-3.678;-0.034;9.573;-3.464;-0.187;9.173;-0.355;0.145;0.502;-0.015;0.008;0.005;79.0;6.3;18.1;-49.7;35.2;1.2;20.6;0.0;1022.4;67.34;47.60322;-122.27222;-51.6;NaN;;9.8;9.67742;73.2;12 / 12;455008;2015-07-28 17:36:56:800
-3.081;0.058;8.908;-3.276;0.143;9.242;0.101;-0.086;-0.071;-0.013;-0.004;0.059;58.0;6.1;16.8;-50.3;32.0;-0.9;19.6;0.0;1022.4;59.42;47.60322;-122.27218;-54.8;NaN;;10.9;9.67742;67.0;14 / 14;456007;2015-07-28 17:36:57:799
-3.223;-0.093;9.306;-3.258;-0.077;9.249;-0.115;0.015;0.103;-0.025;-0.008;0.034;50.0;6.2;17.1;-50.2;33.3;0.4;19.4;0.0;1022.5;60.3;47.60323;-122.27214;-54.8;NaN;;10.7;9.67742;62.4;14 / 14;457007;2015-07-28 17:36:58:799
-2.99;0.0;9.34;-2.858;-0.137;9.38;-0.204;0.139;0.141;-0.026;-0.048;-0.047;63.0;5.3;17.8;-50.6;30.2;0.8;16.9;0.0;1022.4;59.53;47.60324;-122.27211;-54.8;NaN;;9.6;9.67742;60.9;13 / 13;458007;2015-07-28 17:36:59:799
-2.626;-0.008;9.344;-2.534;0.035;9.474;-0.143;0.014;-0.201;-0.028;-0.007;-0.028;74.0;3.3;17.6;-50.6;29.1;-0.3;14.9;0.0;1022.4;63.56;47.60326;-122.27208;-51.6;NaN;;9.8;9.67742;61.5;13 / 15;459007;2015-07-28 17:37:00:799
-2.68;0.019;9.082;-2.541;0.038;9.472;-0.211;0.02;-0.493;-0.042;0.009;-0.017;72.0;2.6;16.1;-50.7;32.5;-0.2;15.0;0.0;1022.4;59.0;47.60327;-122.27205;-51.6;NaN;;10.2;9.67742;67.2;15 / 15;460007;2015-07-28 17:37:01:799
-2.45;-0.002;9.049;-2.693;0.088;9.429;0.22;-0.145;-0.168;0.012;0.017;0.027;67.0;3.5;16.2;-51.0;31.7;-0.5;15.9;0.0;1022.4;58.25;47.60327;-122.27201;-51.6;NaN;;10.4;9.67742;61.3;15 / 15;461007;2015-07-28 17:37:02:799
-2.831;-0.096;10.152;-3.004;-0.178;9.334;-0.084;0.029;1.073;0.02;0.009;0.012;71.0;4.1;17.7;-51.0;34.7;1.0;17.8;0.0;1022.5;65.95;47.60328;-122.27197;-54.8;NaN;;9.7;9.67742;68.0;15 / 15;462008;2015-07-28 17:37:03:800
-2.86;0.077;9.137;-2.887;0.091;9.372;-0.066;-0.002;0.017;-0.004;0.02;-0.008;71.0;4.0;16.7;-51.5;32.8;-0.6;16.9;0.0;1022.4;64.37;47.60329;-122.27193;-58.1;NaN;;10.4;9.67742;66.1;14 / 14;463007;2015-07-28 17:37:04:799
-2.759;0.152;8.51;-2.888;-0.027;9.372;0.118;0.147;-0.593;-0.007;-0.012;0.011;68.0;4.7;17.1;-50.7;31.3;0.2;17.1;0.0;1022.4;64.83;47.6033;-122.2719;-58.1;NaN;;10.2;9.67742;66.3;15 / 15;464007;2015-07-28 17:37:05:799
-2.893;0.149;8.67;-2.837;-0.012;9.387;-0.01;0.035;0.471;0.049;-0.034;-0.012;66.0;5.0;17.7;-50.4;28.3;0.1;16.8;0.0;1022.4;60.93;47.60332;-122.27186;-58.1;NaN;;10.4;9.67742;61.6;14 / 14;465007;2015-07-28 17:37:06:799
-2.483;0.185;8.281;-2.61;0.106;9.452;0.23;0.049;-0.751;-0.003;0.0;-0.017;70.0;4.0;17.2;-50.8;29.0;-0.6;15.4;0.0;1022.4;57.36;47.60333;-122.27182;-58.1;NaN;;11.1;9.67742;61.6;14 / 14;466007;2015-07-28 17:37:07:799
-2.611;0.105;8.841;-2.493;0.098;9.484;0.09;-0.025;-0.354;0.0;-0.045;-0.001;69.0;3.8;17.1;-50.8;27.8;-0.6;14.9;0.0;1022.4;62.09;47.60335;-122.27178;-58.1;NaN;;11.3;9.67742;62.5;14 / 14;467006;2015-07-28 17:37:08:798
-2.163;0.0;9.273;-2.321;-0.003;9.528;0.159;-0.007;-0.124;-0.002;-0.038;-0.015;64.0;2.0;17.3;-50.9;30.8;0.0;13.7;0.0;1022.4;58.59;47.60336;-122.27174;-58.1;NaN;;11.1;9.67742;60.8;15 / 15;468007;2015-07-28 17:37:09:799
-1.974;0.039;9.714;-1.892;0.037;9.622;-0.034;0.015;0.002;0.037;-0.054;-0.032;70.0;0.5;17.0;-50.9;31.0;0.0;11.5;0.0;1022.4;58.33;47.60337;-122.2717;-58.1;NaN;;10.8;9.67742;60.8;15 / 15;469007;2015-07-28 17:37:10:799
-1.723;0.134;9.782;-1.812;-0.022;9.638;-0.029;0.084;0.858;0.094;0.038;-0.032;74.0;-1.8;16.6;-51.2;34.2;0.4;10.5;0.0;1022.5;61.62;47.60338;-122.27167;-61.3;NaN;;10.9;9.67742;60.2;14 / 14;470007;2015-07-28 17:37:11:799
-2.398;-0.134;10.387;-2.371;0.015;9.516;-0.148;-0.115;1.113;0.016;0.072;0.031;79.0;0.7;15.9;-51.1;35.3;-0.1;14.0;0.0;1022.5;67.16;47.6034;-122.27163;-61.3;NaN;;10.8;9.67742;63.1;14 / 14;471007;2015-07-28 17:37:12:799
-2.872;-0.076;9.999;-2.687;-0.164;9.43;-0.177;0.091;0.734;-0.001;0.049;0.022;80.0;2.2;16.5;-50.9;35.7;0.9;15.5;0.0;1022.4;62.42;47.60341;-122.27159;-64.5;NaN;;10.7;9.67742;66.9;15 / 15;472007;2015-07-28 17:37:13:799
-2.877;0.015;9.395;-2.776;-0.134;9.405;-0.156;0.146;0.156;-0.012;0.004;0.013;86.0;3.5;17.1;-50.9;35.2;0.8;16.3;0.0;1022.4;62.16;47.60341;-122.27156;-61.3;NaN;;10.6;9.67742;66.5;15 / 15;473007;2015-07-28 17:37:14:799
-2.58;0.187;8.366;-2.585;0.073;9.46;0.052;0.11;-0.952;-0.046;-0.037;-0.017;76.0;2.8;16.7;-51.2;31.6;-0.6;15.6;0.0;1022.4;58.09;47.60343;-122.27152;-61.3;NaN;;10.9;9.67742;64.2;14 / 14;474008;2015-07-28 17:37:15:800
-2.264;0.039;8.409;-2.4;0.056;9.508;0.145;0.031;-1.158;-0.021;-0.025;-0.029;76.0;1.9;16.5;-51.0;31.4;-0.3;14.2;0.0;1022.4;63.15;47.60343;-122.27149;-61.3;NaN;;11.0;9.67742;61.6;15 / 15;475007;2015-07-28 17:37:16:799
-2.671;-0.048;9.204;-2.758;0.048;9.411;0.044;-0.086;-0.052;0.007;0.033;0.018;72.0;2.7;16.6;-51.0;33.0;-0.4;16.1;0.0;1022.4;61.69;47.60345;-122.27145;-64.5;NaN;;11.2;9.67742;69.6;15 / 15;476008;2015-07-28 17:37:17:800
-3.091;-0.019;8.844;-3.035;-0.129;9.324;-0.164;0.143;-0.248;-0.053;0.031;-0.029;70.0;4.4;16.3;-51.4;38.0;0.8;18.0;0.0;1022.4;65.92;47.60346;-122.27141;-64.5;NaN;;11.2;9.67742;64.7;14 / 14;477007;2015-07-28 17:37:18:799
-2.776;0.021;8.672;-2.951;-0.04;9.352;0.19;0.045;-0.571;-0.002;-0.029;-0.024;65.0;5.0;16.1;-50.5;34.0;0.0;17.7;0.0;1022.4;60.61;47.60347;-122.27138;-64.5;NaN;;10.2;9.67742;63.1;14 / 14;478006;2015-07-28 17:37:19:798
-2.685;0.024;9.568;-3.038;0.015;9.324;0.161;-0.015;0.45;0.062;-0.02;0.021;74.0;4.8;17.1;-50.6;34.6;0.3;18.6;0.0;1022.5;62.13;47.60348;-122.27134;-64.5;NaN;;11.1;9.67742;66.3;15 / 15;479009;2015-07-28 17:37:20:801
-3.078;-0.002;9.537;-2.831;-0.082;9.389;-0.362;0.092;0.408;0.04;-0.005;0.066;68.0;3.3;16.8;-50.5;35.1;0.7;16.8;0.0;1022.4;65.14;47.60349;-122.27131;-61.3;NaN;;10.8;9.67742;65.8;15 / 15;480010;2015-07-28 17:37:21:802
-2.716;-0.057;9.596;-2.79;-0.037;9.401;0.011;-0.025;0.343;-0.011;-0.017;0.015;65.0;3.5;17.1;-51.0;32.6;0.2;16.7;0.0;1022.4;67.07;47.6035;-122.27128;-64.5;NaN;;10.9;9.67742;64.2;14 / 14;481008;2015-07-28 17:37:22:800
-1.878;-0.019;9.158;-2.092;-0.067;9.581;0.057;0.053;-0.194;0.015;-0.074;-0.047;73.0;1.2;17.1;-51.0;30.7;0.4;12.3;0.0;1022.4;60.18;47.60352;-122.27124;-64.5;NaN;;10.7;9.67742;60.6;13 / 13;482007;2015-07-28 17:37:23:799
-1.44;0.17;9.777;-1.513;0.053;9.689;0.05;0.033;0.293;0.047;-0.03;-0.085;73.0;-2.2;16.1;-51.1;31.8;-0.2;9.1;0.0;1022.4;59.72;47.60353;-122.27121;-64.5;NaN;;10.5;9.67742;66.0;14 / 15;483008;2015-07-28 17:37:24:800
-1.49;0.055;9.944;-1.573;0.14;9.679;0.069;-0.105;0.401;0.035;0.013;0.012;73.0;-3.8;15.4;-51.3;38.2;-0.6;9.3;0.0;1022.5;63.95;47.60354;-122.27118;-61.3;NaN;;11.2;9.67742;63.0;13 / 14;484008;2015-07-28 17:37:25:800
-2.001;0.002;9.46;-1.889;0.092;9.623;-0.114;-0.013;0.037;-0.021;0.051;0.017;71.0;-2.8;13.9;-51.4;40.2;-0.7;10.6;0.0;1022.4;62.4;47.60355;-122.27114;-58.1;NaN;;11.2;9.67742;70.9;14 / 15;485007;2015-07-28 17:37:26:799
-2.38;0.052;9.526;-2.121;-0.051;9.574;-0.18;0.127;-0.089;-0.038;-0.007;-0.033;82.0;-0.8;15.4;-51.3;39.2;0.3;12.5;0.0;1022.4;62.95;47.60356;-122.2711;-58.1;NaN;;10.7;9.67742;69.2;14 / 14;486008;2015-07-28 17:37:27:800
-2.163;0.192;8.587;-2.028;0.175;9.593;-0.139;0.048;-0.977;-0.001;0.013;-0.006;79.0;-1.4;14.5;-51.7;36.4;-1.0;11.9;0.0;1022.4;59.99;47.60357;-122.27106;-58.1;NaN;;10.6;9.67742;69.7;15 / 15;487007;2015-07-28 17:37:28:799
-2.168;0.063;9.347;-2.123;-0.021;9.574;0.007;0.069;-0.17;-0.035;0.0;-0.02;83.0;-0.4;15.5;-51.4;36.5;0.1;12.5;0.0;1022.4;64.41;47.60358;-122.27102;-58.1;NaN;;10.8;9.67742;69.5;15 / 15;488007;2015-07-28 17:37:29:799
-2.349;0.148;9.309;-2.404;0.147;9.506;0.038;-0.031;0.04;0.054;0.013;0.028;83.0;0.3;15.6;-51.5;37.5;-0.6;14.2;0.0;1022.4;61.04;47.60359;-122.27098;-58.1;NaN;;10.8;9.67742;67.8;15 / 15;489008;2015-07-28 17:37:30:800
-2.407;-0.005;9.525;-2.482;-0.004;9.487;0.091;-0.039;0.335;-0.005;-0.004;0.035;81.0;1.0;15.5;-51.0;38.6;0.0;14.7;0.0;1022.4;55.68;47.6036;-122.27094;-61.3;NaN;;10.9;9.67742;69.2;15 / 15;490007;2015-07-28 17:37:31:799
-2.115;-0.057;9.912;-2.307;-0.006;9.532;0.175;-0.042;0.355;0.006;-0.019;0.029;80.0;0.7;16.7;-51.4;34.2;0.1;14.1;0.0;1022.5;64.17;47.60361;-122.27092;-61.3;NaN;;10.7;9.67742;64.0;13 / 13;491007;2015-07-28 17:37:32:799
-2.25;-0.053;9.804;-2.232;0.021;9.549;-0.068;-0.01;0.247;-0.058;0.001;0.006;74.0;0.0;15.7;-51.1;35.1;-0.5;13.1;0.0;1022.4;62.92;47.60362;-122.27088;-58.1;NaN;;11.1;9.67742;66.7;15 / 15;492007;2015-07-28 17:37:33:799
-1.857;0.115;8.696;-1.816;0.08;9.637;-0.012;0.142;-1.064;-0.028;-0.059;-0.03;72.0;-1.2;15.1;-51.0;34.1;-0.5;10.7;0.0;1022.4;60.17;47.60363;-122.27084;-58.1;NaN;;10.8;9.67742;67.9;13 / 13;493009;2015-07-28 17:37:34:801
-1.897;0.221;9.098;-1.698;0.027;9.658;-0.109;0.165;-0.366;-0.001;-0.009;-0.03;73.0;-1.8;16.2;-50.8;33.8;-0.2;10.0;0.0;1022.4;61.7;47.60364;-122.27081;-61.3;NaN;;10.2;9.67742;62.0;13 / 13;494007;2015-07-28 17:37:35:799
-1.799;0.192;9.328;-1.846;0.177;9.63;0.027;0.013;-0.179;0.008;0.024;0.02;72.0;-2.2;15.0;-51.4;36.0;-1.0;10.9;0.0;1022.4;60.19;47.60365;-122.27077;-61.3;NaN;;10.5;9.67742;69.1;14 / 14;495007;2015-07-28 17:37:36:799
-2.052;0.077;8.96;-2.278;0.107;9.538;0.149;-0.008;-0.306;-0.039;0.033;0.044;76.0;-0.6;15.5;-51.5;38.0;-0.7;13.4;0.0;1022.4;60.77;47.60367;-122.27073;-61.3;NaN;;10.7;9.67742;69.4;13 / 13;496007;2015-07-28 17:37:37:799
-2.299;0.132;9.06;-2.366;0.146;9.516;0.031;-0.01;-0.352;-0.01;-0.041;0.048;72.0;1.4;16.1;-51.5;34.4;-1.0;14.2;0.0;1022.4;55.62;47.60368;-122.27069;-61.3;NaN;;11.2;9.67742;63.7;14 / 14;497007;2015-07-28 17:37:38:799
-2.123;0.075;9.158;-2.065;0.033;9.587;-0.086;-0.003;-0.068;-0.021;-0.033;0.037;66.0;0.0;17.1;-51.1;32.0;-0.3;12.2;0.0;1022.4;61.54;47.60369;-122.27066;-61.3;NaN;;10.5;9.67742;61.0;15 / 15;498007;2015-07-28 17:37:39:799
-2.073;0.077;9.164;-2.065;0.104;9.586;-0.082;-0.028;-0.072;-0.046;0.009;0.057;57.0;-0.1;17.0;-50.8;31.5;-0.6;12.2;0.0;1022.4;58.79;47.6037;-122.27063;-61.3;NaN;;9.9;9.67742;60.4;12 / 13;499008;2015-07-28 17:37:40:800
-1.706;-0.017;9.026;-1.846;0.095;9.631;0.08;-0.093;-0.393;0.007;-0.048;0.024;47.0;0.9;17.8;-51.0;25.0;-0.6;10.8;0.0;1022.4;62.28;47.60372;-122.27059;-61.3;NaN;;10.4;9.67742;56.3;12 / 15;500007;2015-07-28 17:37:41:799
-1.133;0.153;9.22;-1.376;0.123;9.709;0.228;0.026;-0.37;0.044;-0.008;-0.023;49.0;-1.6;18.2;-50.7;28.1;-0.1;8.7;0.0;1022.5;58.01;47.60373;-122.27056;-64.5;NaN;;10.7;9.67742;49.9;15 / 15;501007;2015-07-28 17:37:42:799
-1.36;0.019;9.763;-1.601;-0.021;9.675;0.193;0.031;0.196;0.02;0.014;-0.022;51.0;-0.7;17.8;-50.8;27.8;0.2;9.5;0.0;1022.5;61.02;47.60374;-122.27053;-64.5;NaN;;10.2;9.67742;57.1;14 / 14;502007;2015-07-28 17:37:43:799
-1.539;-0.071;10.114;-1.608;-0.128;9.673;0.078;0.042;0.452;0.033;0.022;-0.042;57.0;-0.7;18.5;-50.4;28.1;0.9;9.5;0.0;1022.4;60.14;47.60376;-122.27051;-61.3;NaN;;10.3;9.67742;60.4;13 / 14;503007;2015-07-28 17:37:44:799
-2.053;0.024;9.62;-1.948;-0.028;9.611;-0.049;0.133;0.114;-0.019;0.055;-0.028;64.0;-0.2;18.1;-50.7;29.6;0.2;11.5;0.0;1022.4;61.73;47.60377;-122.27048;-61.3;NaN;;9.9;9.67742;60.9;13 / 13;504007;2015-07-28 17:37:45:799
-2.347;0.039;8.896;-2.519;0.133;9.477;0.071;-0.09;-0.259;0.0;0.064;0.017;57.0;2.6;16.7;-51.0;28.8;-1.0;14.5;0.0;1022.4;64.03;47.60378;-122.27045;-61.3;NaN;;10.3;9.67742;61.4;15 / 15;505007;2015-07-28 17:37:46:799
-2.832;0.0;9.125;-2.858;-0.097;9.381;0.005;0.158;-0.306;-0.027;-0.002;-0.003;57.0;5.1;18.4;-50.1;29.2;0.6;16.9;0.0;1022.4;67.62;47.6038;-122.27041;-61.3;NaN;;10.3;9.67742;65.8;13 / 13;506007;2015-07-28 17:37:47:799
-2.882;0.153;8.602;-2.552;0.071;9.468;-0.05;0.116;-1.352;-0.036;-0.054;-0.043;58.0;4.4;16.8;-50.3;27.8;-1.0;15.4;0.0;1022.4;66.61;47.60381;-122.27038;-61.3;NaN;;10.6;9.67742;60.5;13 / 15;507007;2015-07-28 17:37:48:799
-1.67;0.173;7.768;-1.945;0.126;9.611;0.298;0.064;-1.965;-0.062;-0.111;-0.055;59.0;2.0;17.4;-50.8;26.6;-1.0;12.3;0.0;1022.4;61.48;47.60382;-122.27034;-61.3;NaN;;10.7;9.67742;57.3;13 / 14;508008;2015-07-28 17:37:49:800
-1.34;0.096;9.538;-1.598;0.051;9.675;0.257;0.025;-0.26;0.075;-0.016;-0.032;67.0;-0.9;17.3;-51.1;29.2;0.0;9.6;0.0;1022.5;60.12;47.60384;-122.27031;-61.3;NaN;;10.5;9.67742;55.6;14 / 14;509008;2015-07-28 17:37:50:800
-2.034;-0.09;9.98;-1.934;-0.117;9.613;-0.124;0.034;0.41;-0.007;0.053;-0.007;72.0;-1.4;16.8;-50.8;32.8;0.5;10.9;0.0;1022.5;58.39;47.60385;-122.27027;-61.3;NaN;;10.2;9.67742;61.0;13 / 14;510006;2015-07-28 17:37:51:798
-2.461;0.144;9.061;-2.087;-0.059;9.582;-0.085;0.186;-0.261;-0.039;0.057;-0.077;78.0;0.5;16.9;-50.6;33.0;0.3;12.3;0.0;1022.4;63.86;47.60385;-122.27024;-61.3;NaN;;10.2;9.67742;67.3;13 / 14;511007;2015-07-28 17:37:52:799
-2.512;0.072;8.733;-2.669;0.196;9.434;0.096;-0.121;-0.604;0.053;0.024;0.001;78.0;2.8;16.3;-51.2;32.5;-1.1;15.6;0.0;1022.4;63.73;47.60387;-122.27021;-64.5;NaN;;10.8;9.67742;68.0;13 / 13;512007;2015-07-28 17:37:53:799
-3.013;-0.007;9.218;-3.145;0.038;9.289;0.124;-0.062;0.067;0.03;0.036;0.038;83.0;4.8;16.2;-51.0;36.0;0.0;18.7;0.0;1022.5;63.05;47.60388;-122.27017;-64.5;NaN;;11.1;9.67742;69.1;14 / 15;513007;2015-07-28 17:37:54:799
-3.549;-0.108;9.057;-3.376;-0.076;9.207;-0.159;0.016;-0.021;-0.038;0.02;0.028;83.0;5.6;16.8;-50.8;34.5;0.3;19.7;0.0;1022.4;59.38;47.60389;-122.27014;-64.5;NaN;;10.4;9.67742;65.0;14 / 15;514007;2015-07-28 17:37:55:799
-3.138;0.022;8.368;-3.05;-0.09;9.32;0.09;0.205;-0.966;-0.037;-0.057;-0.029;75.0;5.6;16.6;-50.7;31.6;0.5;18.1;0.0;1022.4;64.95;47.6039;-122.2701;-64.5;NaN;;10.7;9.67742;58.8;12 / 13;515008;2015-07-28 17:37:56:800
-3.118;-0.024;9.044;-3.169;0.025;9.28;0.019;-0.039;-0.24;0.007;-0.005;0.029;74.0;5.3;17.3;-50.1;33.7;-0.1;18.8;0.0;1022.4;55.62;47.6039;-122.27006;-64.5;NaN;;10.6;9.67742;66.4;14 / 15;516007;2015-07-28 17:37:57:799
-3.151;-0.011;8.907;-3.034;-0.123;9.325;-0.14;0.102;-0.255;-0.028;0.007;-0.012;75.0;5.1;17.8;-50.3;31.7;0.7;18.0;0.0;1022.4;59.78;47.60392;-122.27003;-64.5;NaN;;10.6;9.67742;60.3;13 / 13;517007;2015-07-28 17:37:58:799
-3.212;-0.038;8.995;-3.31;0.052;9.231;0.1;-0.084;-0.082;-0.011;0.032;0.009;65.0;6.9;16.8;-50.8;31.6;-0.3;19.7;0.0;1022.4;59.84;47.60393;-122.26999;-64.5;NaN;;10.6;9.67742;65.2;14 / 15;518007;2015-07-28 17:37:59:799
-3.176;0.0;8.36;-3.359;-0.018;9.213;0.172;-0.049;-0.485;-0.015;-0.041;-0.013;56.0;7.7;17.0;-50.5;29.9;0.0;20.2;0.0;1022.4;56.58;47.60394;-122.26996;-64.5;NaN;;10.7;9.67742;66.6;14 / 15;519008;2015-07-28 17:38:00:800
-2.452;0.057;8.795;-2.958;0.058;9.35;0.463;-0.053;-0.102;0.062;-0.045;-0.017;59.0;6.3;17.2;-50.1;30.4;-0.1;18.3;0.0;1022.4;57.73;47.60395;-122.26992;-64.5;NaN;;10.5;9.67742;66.6;14 / 14;520006;2015-07-28 17:38:01:798
-2.829;-0.091;9.747;-2.808;-0.085;9.396;-0.111;-0.045;0.563;0.053;-0.026;0.008;71.0;4.2;17.7;-50.6;32.8;0.9;17.0;0.0;1022.5;68.21;47.60397;-122.26989;-64.5;NaN;;10.2;9.67742;64.0;14 / 15;521007;2015-07-28 17:38:02:799
-2.661;-0.029;9.357;-2.62;-0.049;9.45;-0.08;0.005;0.045;0.001;0.003;0.001;73.0;3.2;17.5;-50.7;31.2;0.3;15.5;0.0;1022.4;64.9;47.60398;-122.26986;-67.7;NaN;;10.6;9.67742;58.3;14 / 14;522008;2015-07-28 17:38:03:800
-2.297;-0.019;8.979;-2.594;0.047;9.457;0.245;-0.105;-0.251;-0.047;0.019;-0.021;64.0;3.1;15.7;-50.5;33.0;-0.5;15.4;0.0;1022.4;64.39;47.604;-122.26983;-67.7;NaN;;10.9;9.67742;60.3;15 / 15;523007;2015-07-28 17:38:04:799
-2.952;-0.123;9.762;-3.063;-0.083;9.316;0.134;-0.113;0.522;0.048;0.037;0.009;71.0;4.5;17.5;-49.7;31.7;0.5;18.2;0.0;1022.5;64.66;47.60401;-122.26979;-71.0;NaN;;10.2;9.67742;64.1;15 / 15;524007;2015-07-28 17:38:05:799
-3.485;-0.253;9.635;-3.299;-0.226;9.232;-0.212;-0.045;0.516;0.009;0.045;0.034;86.0;6.1;17.4;-50.3;34.8;1.3;19.5;0.0;1022.5;65.96;47.60402;-122.26976;-67.7;NaN;;10.2;9.67742;71.7;12 / 12;525008;2015-07-28 17:38:06:800
-3.542;-0.096;9.357;-3.399;-0.161;9.197;-0.216;0.083;0.333;-0.046;0.013;-0.014;76.0;7.2;17.0;-50.4;33.6;0.9;20.3;0.0;1022.4;63.01;47.60403;-122.26972;-71.0;NaN;;10.8;9.67742;60.4;14 / 14;526007;2015-07-28 17:38:07:799
-3.523;-0.079;8.642;-3.542;-0.127;9.144;0.106;-0.025;-0.354;-0.005;0.021;0.02;62.0;7.8;17.9;-50.3;31.4;0.7;21.2;0.0;1022.4;69.64;47.60404;-122.26969;-71.0;NaN;;10.2;9.67742;65.0;14 / 14;527007;2015-07-28 17:38:08:799
-3.618;-0.097;8.483;-3.743;-0.093;9.064;0.085;-0.009;-0.385;-0.001;-0.002;0.04;43.0;9.6;17.9;-49.5;29.3;0.5;22.4;0.0;1022.5;59.36;47.60405;-122.26965;-71.0;NaN;;10.4;9.67742;61.4;12 / 12;528007;2015-07-28 17:38:09:799
-3.77;-0.115;8.537;-3.717;-0.232;9.072;-0.145;0.132;-0.428;-0.039;-0.014;0.005;31.0;9.5;18.5;-49.0;27.2;1.3;22.1;0.0;1022.4;66.97;47.60407;-122.26961;-74.2;NaN;;10.3;9.67742;59.6;14 / 15;529007;2015-07-28 17:38:10:799
-3.501;-0.153;8.767;-3.717;-0.136;9.074;0.154;-0.015;-0.15;-0.029;-0.014;0.009;36.0;10.1;18.5;-49.5;27.7;0.7;22.7;0.0;1022.4;62.19;47.60408;-122.26957;-71.0;NaN;;10.2;9.67742;55.7;15 / 15;530007;2015-07-28 17:38:11:799
-3.466;-0.236;9.047;-3.418;-0.185;9.19;-0.149;0.014;-0.102;-0.03;-0.055;0.033;41.0;9.1;19.5;-49.3;25.6;1.1;20.4;0.0;1022.4;62.84;47.60409;-122.26954;-71.0;NaN;;9.8;9.67742;56.8;15 / 15;531007;2015-07-28 17:38:12:799
-2.68;-0.165;9.064;-2.783;-0.086;9.403;-0.018;-0.074;-0.139;-0.038;-0.057;-0.01;43.0;6.2;18.6;-49.9;24.7;0.3;16.7;0.0;1022.4;65.49;47.60411;-122.26951;-71.0;NaN;;10.1;9.67742;53.4;12 / 13;532007;2015-07-28 17:38:13:799
-2.069;0.055;9.559;-2.256;0.025;9.544;0.059;-0.015;0.066;0.03;-0.046;-0.029;46.0;3.4;18.3;-50.7;25.9;-0.1;13.3;0.0;1022.4;66.97;47.60414;-122.26949;-71.0;NaN;;9.9;9.67742;55.2;14 / 14;533006;2015-07-28 17:38:14:798
-2.154;-0.038;9.776;-2.182;0.023;9.561;-0.031;-0.084;0.364;-0.009;0.028;-0.004;45.0;1.8;17.7;-51.0;26.8;-0.2;12.6;0.0;1022.4;61.73;47.60415;-122.26946;-71.0;NaN;;10.0;9.67742;56.8;12 / 12;534007;2015-07-28 17:38:15:799
-2.38;0.0;9.181;-2.301;-0.001;9.533;-0.116;0.039;-0.631;-0.062;-0.02;-0.008;49.0;2.0;16.7;-51.2;30.5;0.0;13.6;0.0;1022.4;63.86;47.60416;-122.26943;-71.0;NaN;;10.3;9.67742;55.8;11 / 13;535007;2015-07-28 17:38:16:799
-1.974;0.151;8.488;-2.061;0.02;9.588;0.082;0.124;-0.889;0.01;-0.01;-0.062;53.0;1.5;17.7;-50.4;25.2;-0.3;12.2;0.0;1022.4;64.51;47.60417;-122.2694;-71.0;NaN;;9.9;9.67742;56.6;13 / 13;536007;2015-07-28 17:38:17:799
-2.306;0.106;8.654;-2.283;0.122;9.537;0.005;0.046;-0.65;0.016;0.016;-0.031;64.0;1.7;17.1;-51.0;29.6;-0.3;13.3;0.0;1022.4;65.88;47.60419;-122.26936;-71.0;NaN;;10.4;9.67742;60.5;11 / 11;537006;2015-07-28 17:38:18:798
-2.847;-0.038;9.257;-2.892;0.084;9.37;0.066;-0.117;0.013;0.004;0.05;0.031;55.0;4.6;17.1;-50.5;30.1;-0.5;17.0;0.0;1022.4;60.79;47.6042;-122.26933;-71.0;NaN;;10.2;9.67742;64.2;14 / 14;538007;2015-07-28 17:38:19:799
-3.087;-0.091;9.368;-3.149;-0.093;9.287;-0.007;-0.103;0.256;-0.011;0.006;0.041;48.0;5.9;18.0;-50.1;30.6;0.5;18.8;0.0;1022.5;58.09;47.60421;-122.2693;-71.0;NaN;;10.0;9.67742;63.1;13 / 13;539006;2015-07-28 17:38:20:798
-2.805;-0.086;9.568;-3.039;-0.054;9.324;0.102;-0.057;0.28;0.012;-0.025;-0.004;44.0;6.1;18.1;-49.9;28.9;0.3;18.1;0.0;1022.4;71.2;47.60423;-122.26926;-67.7;NaN;;10.4;9.67742;60.4;14 / 14;540007;2015-07-28 17:38:21:799
-2.719;-0.129;10.147;-2.83;-0.106;9.389;0.004;-0.03;0.89;-0.001;0.002;0.013;46.0;4.7;18.5;-50.2;27.8;0.7;16.8;0.0;1022.5;61.08;47.60424;-122.26923;-71.0;NaN;;9.9;9.67742;66.7;13 / 13;541007;2015-07-28 17:38:22:799
-2.944;-0.038;8.749;-2.663;0.003;9.438;-0.136;0.141;-0.661;-0.035;0.021;-0.041;47.0;3.3;17.6;-50.5;30.7;0.0;15.8;0.0;1022.3;66.68;47.60425;-122.26921;-71.0;NaN;;10.9;9.67742;57.7;14 / 14;542007;2015-07-28 17:38:23:799
-2.795;0.144;8.725;-2.807;0.231;9.393;0.098;-0.11;-0.525;0.014;-0.01;0.008;50.0;4.9;16.4;-50.6;29.7;-1.4;16.6;0.0;1022.4;64.64;47.60426;-122.26917;-71.0;NaN;;10.8;9.67742;60.8;12 / 12;543006;2015-07-28 17:38:24:798
-2.661;-0.158;9.003;-2.86;-0.063;9.38;0.096;-0.058;-0.291;-0.058;-0.011;0.004;46.0;5.1;16.9;-50.3;30.4;0.4;17.0;0.0;1022.4;62.37;47.60428;-122.26914;-67.7;NaN;;10.6;9.67742;59.0;13 / 13;544007;2015-07-28 17:38:25:799
-2.585;-0.043;9.544;-2.644;-0.096;9.443;0.061;0.053;0.129;0.014;-0.048;-0.038;53.0;4.2;18.0;-50.5;29.4;0.6;15.9;0.0;1022.5;62.5;47.60429;-122.26911;-67.7;NaN;;10.1;9.67742;60.2;12 / 13;545007;2015-07-28 17:38:26:799
-2.125;-0.057;9.865;-2.261;-0.063;9.542;-0.012;0.034;0.479;0.05;-0.02;-0.026;65.0;1.5;17.8;-51.1;29.0;0.4;13.3;0.0;1022.5;60.43;47.60431;-122.26907;-67.7;NaN;;10.2;9.67742;62.0;13 / 14;546007;2015-07-28 17:38:27:799
-2.191;0.096;9.405;-2.211;0.074;9.554;-0.13;0.024;0.036;0.007;0.03;-0.026;71.0;0.9;16.4;-51.0;32.7;-0.4;13.0;0.0;1022.4;59.78;47.60432;-122.26904;-64.5;NaN;;10.6;9.67742;62.9;14 / 14;547007;2015-07-28 17:38:28:799
-2.634;0.039;8.577;-2.546;0.089;9.47;0.001;0.01;-0.627;-0.012;0.047;-0.011;77.0;2.2;15.5;-50.6;32.8;-0.7;14.4;0.0;1022.4;64.93;47.60434;-122.269;-64.5;NaN;;11.0;9.67742;62.6;12 / 12;548007;2015-07-28 17:38:29:799
-2.777;0.077;8.831;-2.98;0.043;9.343;0.208;-0.005;-0.331;0.033;0.004;-0.001;75.0;4.7;15.8;-51.1;33.5;-0.3;17.7;0.0;1022.4;64.76;47.60435;-122.26897;-64.5;NaN;;10.7;9.67742;67.0;13 / 14;549008;2015-07-28 17:38:30:800
-2.795;-0.038;9.271;-3.043;0.013;9.323;0.162;-0.07;0.155;0.031;0.001;0.039;76.0;5.3;16.9;-50.8;33.0;-0.1;18.1;0.0;1022.5;56.89;47.60436;-122.26893;-64.5;NaN;;10.2;9.67742;64.9;13 / 14;550007;2015-07-28 17:38:31:799
-2.638;-0.065;9.926;-2.958;-0.168;9.348;0.116;0.04;0.49;0.037;-0.014;0.011;81.0;4.3;17.2;-50.8;36.3;1.1;17.8;0.0;1022.4;66.41;47.60437;-122.26889;-64.5;NaN;;10.3;9.67742;64.6;13 / 13;551008;2015-07-28 17:38:32:800
-2.823;-0.049;9.758;-2.788;-0.005;9.402;-0.143;-0.033;0.435;0.037;0.003;0.046;74.0;3.7;17.0;-50.1;31.6;0.2;16.5;0.0;1022.4;65.11;47.60438;-122.26886;-64.5;NaN;;10.3;9.67742;65.3;12 / 12;552007;2015-07-28 17:38:33:799
-3.025;-0.019;9.308;-2.907;0.022;9.366;-0.123;-0.031;0.074;0.003;0.012;0.049;68.0;4.3;17.0;-51.1;33.4;-0.1;17.2;0.0;1022.4;62.57;47.60439;-122.26883;-64.5;NaN;;10.6;9.67742;63.9;12 / 12;553007;2015-07-28 17:38:34:799
-2.761;-0.034;9.109;-2.704;0.081;9.426;-0.028;-0.122;-0.12;0.0;-0.053;0.034;63.0;4.0;16.2;-51.0;32.3;-0.7;16.3;0.0;1022.4;59.84;47.6044;-122.26879;-64.5;NaN;;11.3;9.67742;60.1;14 / 14;554007;2015-07-28 17:38:35:799
-1.741;-0.114;9.558;-1.92;-0.119;9.616;0.163;0.022;0.02;-0.005;-0.059;-0.043;70.0;0.5;17.3;-50.6;31.3;0.7;11.3;0.0;1022.5;59.97;47.60441;-122.26875;-64.5;NaN;;10.5;9.67742;58.1;13 / 13;555007;2015-07-28 17:38:36:799
